"Time (s)","Linear Acceleration x (m/s^2)","Linear Acceleration y (m/s^2)","Linear Acceleration z (m/s^2)","Absolute acceleration (m/s^2)"
1.806405000E-3,2.563999966E-3,5.288999993E-3,-9.253200144E-2,9.271849280E-2
2.944602200E-2,2.563999966E-3,5.288999993E-3,-9.253200144E-2,9.271849280E-2
3.338448200E-2,2.563999966E-3,5.288999993E-3,-9.253200144E-2,9.271849280E-2
3.732294400E-2,2.563999966E-3,5.288999993E-3,-9.253200144E-2,9.271849280E-2
4.126085200E-2,2.563999966E-3,5.288999993E-3,-9.253200144E-2,9.271849280E-2
4.519900600E-2,2.563999966E-3,5.288999993E-3,-9.253200144E-2,9.271849280E-2
4.913623700E-2,2.563999966E-3,5.288999993E-3,-9.253200144E-2,9.271849280E-2
5.307368800E-2,2.563999966E-3,5.288999993E-3,-9.253200144E-2,9.271849280E-2
5.701130400E-2,2.563999966E-3,5.288999993E-3,-9.253200144E-2,9.271849280E-2
6.094945800E-2,2.563999966E-3,5.288999993E-3,-9.253200144E-2,9.271849280E-2
6.488753400E-2,2.563999966E-3,5.288999993E-3,-9.253200144E-2,9.271849280E-2
6.882599600E-2,-2.278749943E-1,-3.913550079E-1,2.095800079E-2,4.533486440E-1
7.276422700E-2,-2.278749943E-1,-3.913550079E-1,2.095800079E-2,4.533486440E-1
7.670267400E-2,-2.278749943E-1,-3.913550079E-1,2.095800079E-2,4.533486440E-1
8.064082800E-2,-2.278749943E-1,-3.913550079E-1,2.095800079E-2,4.533486440E-1
8.457890500E-2,-2.278749943E-1,-3.913550079E-1,2.095800079E-2,4.533486440E-1
8.851741400E-2,-1.706749946E-1,-3.649689853E-1,-3.076500073E-2,4.040777144E-1
9.245579800E-2,-1.706749946E-1,-3.649689853E-1,-3.076500073E-2,4.040777144E-1
9.639402900E-2,-1.706749946E-1,-3.649689853E-1,-3.076500073E-2,4.040777144E-1
1.003324860E-1,-1.706749946E-1,-3.649689853E-1,-3.076500073E-2,4.040777144E-1
1.042709470E-1,-1.706749946E-1,-3.649689853E-1,-3.076500073E-2,4.040777144E-1
1.082090240E-1,-7.363399863E-2,-3.924619853E-1,-8.082699776E-2,4.074081237E-1
1.121474910E-1,-7.363399863E-2,-3.924619853E-1,-8.082699776E-2,4.074081237E-1
1.160856440E-1,-7.363399863E-2,-3.924619853E-1,-8.082699776E-2,4.074081237E-1
1.200238750E-1,-7.363399863E-2,-3.924619853E-1,-8.082699776E-2,4.074081237E-1
1.239623560E-1,-7.363399863E-2,-3.924619853E-1,-8.082699776E-2,4.074081237E-1
1.279005100E-1,2.117200010E-2,-4.733119905E-1,-1.427499950E-1,4.948232563E-1
1.318389710E-1,2.117200010E-2,-4.733119905E-1,-1.427499950E-1,4.948232563E-1
1.357774190E-1,2.117200010E-2,-4.733119905E-1,-1.427499950E-1,4.948232563E-1
1.397158030E-1,2.117200010E-2,-4.733119905E-1,-1.427499950E-1,4.948232563E-1
1.436537260E-1,2.117200010E-2,-4.733119905E-1,-1.427499950E-1,4.948232563E-1
1.475914960E-1,2.117200010E-2,-4.733119905E-1,-1.427499950E-1,4.948232563E-1
1.515290340E-1,1.939560026E-1,-4.299579859E-1,-6.808300316E-2,4.765690883E-1
1.554671880E-1,1.939560026E-1,-4.299579859E-1,-6.808300316E-2,4.765690883E-1
1.594051060E-1,1.939560026E-1,-4.299579859E-1,-6.808300316E-2,4.765690883E-1
1.633432600E-1,1.939560026E-1,-4.299579859E-1,-6.808300316E-2,4.765690883E-1
1.672811060E-1,1.939560026E-1,-4.299579859E-1,-6.808300316E-2,4.765690883E-1
1.712197980E-1,2.402040064E-1,-4.258019924E-1,-6.159700081E-2,4.927468843E-1
1.751582600E-1,2.402040064E-1,-4.258019924E-1,-6.159700081E-2,4.927468843E-1
1.790964910E-1,2.402040064E-1,-4.258019924E-1,-6.159700081E-2,4.927468843E-1
1.830355530E-1,2.402040064E-1,-4.258019924E-1,-6.159700081E-2,4.927468843E-1
1.869733990E-1,2.402040064E-1,-4.258019924E-1,-6.159700081E-2,4.927468843E-1
1.909115530E-1,2.694100142E-1,-4.611000121E-1,-1.130999997E-3,5.340376916E-1
1.948500100E-1,2.694100142E-1,-4.611000121E-1,-1.130999997E-3,5.340376916E-1
1.987877790E-1,2.694100142E-1,-4.611000121E-1,-1.130999997E-3,5.340376916E-1
2.027259330E-1,2.694100142E-1,-4.611000121E-1,-1.130999997E-3,5.340376916E-1
2.066643800E-1,2.694100142E-1,-4.611000121E-1,-1.130999997E-3,5.340376916E-1
2.106026110E-1,2.552559972E-1,-5.090299845E-1,9.930200130E-2,5.780380927E-1
2.145406880E-1,2.552559972E-1,-5.090299845E-1,9.930200130E-2,5.780380927E-1
2.184786010E-1,2.552559972E-1,-5.090299845E-1,9.930200130E-2,5.780380927E-1
2.224169850E-1,2.552559972E-1,-5.090299845E-1,9.930200130E-2,5.780380927E-1
2.263551390E-1,2.552559972E-1,-5.090299845E-1,9.930200130E-2,5.780380927E-1
2.302933650E-1,1.446419954E-1,-5.293369889E-1,2.530680001E-1,6.042866599E-1
2.342317500E-1,1.446419954E-1,-5.293369889E-1,2.530680001E-1,6.042866599E-1
2.381699030E-1,1.446419954E-1,-5.293369889E-1,2.530680001E-1,6.042866599E-1
2.421081200E-1,1.446419954E-1,-5.293369889E-1,2.530680001E-1,6.042866599E-1
2.460461970E-1,1.446419954E-1,-5.293369889E-1,2.530680001E-1,6.042866599E-1
2.499843510E-1,6.961000152E-3,-4.407770038E-1,3.109880090E-1,5.394871308E-1
2.539224860E-1,6.961000152E-3,-4.407770038E-1,3.109880090E-1,5.394871308E-1
2.578610240E-1,6.961000152E-3,-4.407770038E-1,3.109880090E-1,5.394871308E-1
2.617994860E-1,6.961000152E-3,-4.407770038E-1,3.109880090E-1,5.394871308E-1
2.657376540E-1,6.961000152E-3,-4.407770038E-1,3.109880090E-1,5.394871308E-1
2.696757310E-1,-6.151099876E-2,-3.391599953E-1,1.499159932E-1,3.758828413E-1
2.736135770E-1,-6.151099876E-2,-3.391599953E-1,1.499159932E-1,3.758828413E-1
2.775517460E-1,-6.151099876E-2,-3.391599953E-1,1.499159932E-1,3.758828413E-1
2.814896690E-1,-6.151099876E-2,-3.391599953E-1,1.499159932E-1,3.758828413E-1
2.854275150E-1,-6.151099876E-2,-3.391599953E-1,1.499159932E-1,3.758828413E-1
2.893659040E-1,-1.293179989E-1,-4.150139987E-1,1.113999984E-3,4.346964515E-1
2.933037500E-1,-1.293179989E-1,-4.150139987E-1,1.113999984E-3,4.346964515E-1
2.972419040E-1,-1.293179989E-1,-4.150139987E-1,1.113999984E-3,4.346964515E-1
3.011800620E-1,-1.293179989E-1,-4.150139987E-1,1.113999984E-3,4.346964515E-1
3.051176780E-1,-1.293179989E-1,-4.150139987E-1,1.113999984E-3,4.346964515E-1
3.090560620E-1,-1.830700040E-1,-3.413150012E-1,-2.604399994E-2,3.881866128E-1
3.129942160E-1,-1.830700040E-1,-3.413150012E-1,-2.604399994E-2,3.881866128E-1
3.169321390E-1,-1.830700040E-1,-3.413150012E-1,-2.604399994E-2,3.881866128E-1
3.208702160E-1,-1.830700040E-1,-3.413150012E-1,-2.604399994E-2,3.881866128E-1
3.248083800E-1,-1.830700040E-1,-3.413150012E-1,-2.604399994E-2,3.881866128E-1
3.287459960E-1,-1.411760002E-1,-3.086189926E-1,-8.073700219E-2,3.488478309E-1
3.326843800E-1,-1.411760002E-1,-3.086189926E-1,-8.073700219E-2,3.488478309E-1
3.366226300E-1,-1.411760002E-1,-3.086189926E-1,-8.073700219E-2,3.488478309E-1
3.405603990E-1,-1.411760002E-1,-3.086189926E-1,-8.073700219E-2,3.488478309E-1
3.444986300E-1,-1.411760002E-1,-3.086189926E-1,-8.073700219E-2,3.488478309E-1
3.484370970E-1,-1.125399992E-1,-3.577840030E-1,-8.096700162E-2,3.837060067E-1
3.523755580E-1,-1.125399992E-1,-3.577840030E-1,-8.096700162E-2,3.837060067E-1
3.563133270E-1,-1.125399992E-1,-3.577840030E-1,-8.096700162E-2,3.837060067E-1
3.602515430E-1,-1.125399992E-1,-3.577840030E-1,-8.096700162E-2,3.837060067E-1
3.641896200E-1,-1.125399992E-1,-3.577840030E-1,-8.096700162E-2,3.837060067E-1
3.681277740E-1,-1.240290031E-1,-3.936629891E-1,-4.060899839E-2,4.147322430E-1
3.720659430E-1,-1.240290031E-1,-3.936629891E-1,-4.060899839E-2,4.147322430E-1
3.760040970E-1,-1.240290031E-1,-3.936629891E-1,-4.060899839E-2,4.147322430E-1
3.799420200E-1,-1.240290031E-1,-3.936629891E-1,-4.060899839E-2,4.147322430E-1
3.838798660E-1,-1.240290031E-1,-3.936629891E-1,-4.060899839E-2,4.147322430E-1
3.878180200E-1,-1.240290031E-1,-3.936629891E-1,-4.060899839E-2,4.147322430E-1
3.917564040E-1,-1.185400039E-2,-3.210529983E-1,-4.125000164E-2,3.239091040E-1
3.956948990E-1,-1.185400039E-2,-3.210529983E-1,-4.125000164E-2,3.239091040E-1
3.996331300E-1,-1.185400039E-2,-3.210529983E-1,-4.125000164E-2,3.239091040E-1
4.035718220E-1,-1.185400039E-2,-3.210529983E-1,-4.125000164E-2,3.239091040E-1
4.075103700E-1,-1.185400039E-2,-3.210529983E-1,-4.125000164E-2,3.239091040E-1
4.114490630E-1,1.976599917E-2,-3.579280078E-1,-1.225000015E-3,3.584754582E-1
4.153876010E-1,1.976599917E-2,-3.579280078E-1,-1.225000015E-3,3.584754582E-1
4.193262990E-1,1.976599917E-2,-3.579280078E-1,-1.225000015E-3,3.584754582E-1
4.232650680E-1,1.976599917E-2,-3.579280078E-1,-1.225000015E-3,3.584754582E-1
4.272029140E-1,1.976599917E-2,-3.579280078E-1,-1.225000015E-3,3.584754582E-1
4.311410630E-1,-2.909499966E-2,-3.953840137E-1,1.065080017E-1,4.105106475E-1
4.350789860E-1,-2.909499966E-2,-3.953840137E-1,1.065080017E-1,4.105106475E-1
4.390171400E-1,-2.909499966E-2,-3.953840137E-1,1.065080017E-1,4.105106475E-1
4.429550050E-1,-2.909499966E-2,-3.953840137E-1,1.065080017E-1,4.105106475E-1
4.468933900E-1,-2.909499966E-2,-3.953840137E-1,1.065080017E-1,4.105106475E-1
4.508318510E-1,1.841899939E-2,-3.924809992E-1,2.001560032E-1,4.409569366E-1
4.547697790E-1,1.841899939E-2,-3.924809992E-1,2.001560032E-1,4.409569366E-1
4.587081640E-1,1.841899939E-2,-3.924809992E-1,2.001560032E-1,4.409569366E-1
4.626460870E-1,1.841899939E-2,-3.924809992E-1,2.001560032E-1,4.409569366E-1
4.665845630E-1,1.841899939E-2,-3.924809992E-1,2.001560032E-1,4.409569366E-1
4.705230250E-1,5.301500112E-2,-4.307459891E-1,2.120659947E-1,4.830369381E-1
4.744614870E-1,5.301500112E-2,-4.307459891E-1,2.120659947E-1,4.830369381E-1
4.783993140E-1,5.301500112E-2,-4.307459891E-1,2.120659947E-1,4.830369381E-1
4.823376980E-1,5.301500112E-2,-4.307459891E-1,2.120659947E-1,4.830369381E-1
4.862759290E-1,5.301500112E-2,-4.307459891E-1,2.120659947E-1,4.830369381E-1
4.902143040E-1,-7.013999857E-3,-3.875739872E-1,2.378460020E-1,4.547895254E-1
4.941521500E-1,-7.013999857E-3,-3.875739872E-1,2.378460020E-1,4.547895254E-1
4.980903810E-1,-7.013999857E-3,-3.875739872E-1,2.378460020E-1,4.547895254E-1
5.020287460E-1,-7.013999857E-3,-3.875739872E-1,2.378460020E-1,4.547895254E-1
5.059669770E-1,-7.013999857E-3,-3.875739872E-1,2.378460020E-1,4.547895254E-1
5.099051310E-1,-1.345780045E-1,-3.446710110E-1,2.498449981E-1,4.464659765E-1
5.138438900E-1,-1.345780045E-1,-3.446710110E-1,2.498449981E-1,4.464659765E-1
5.177813520E-1,-1.345780045E-1,-3.446710110E-1,2.498449981E-1,4.464659765E-1
5.217192750E-1,-1.345780045E-1,-3.446710110E-1,2.498449981E-1,4.464659765E-1
5.256570060E-1,-1.345780045E-1,-3.446710110E-1,2.498449981E-1,4.464659765E-1
5.295948520E-1,-1.799529940E-1,-2.476010025E-1,2.335799932E-1,3.850311023E-1
5.335327750E-1,-1.799529940E-1,-2.476010025E-1,2.335799932E-1,3.850311023E-1
5.374709100E-1,-1.799529940E-1,-2.476010025E-1,2.335799932E-1,3.850311023E-1
5.414092950E-1,-1.799529940E-1,-2.476010025E-1,2.335799932E-1,3.850311023E-1
5.453468330E-1,-1.799529940E-1,-2.476010025E-1,2.335799932E-1,3.850311023E-1
5.492846590E-1,-1.977989972E-1,-2.324990034E-1,1.344880015E-1,3.335674630E-1
5.532222750E-1,-1.977989972E-1,-2.324990034E-1,1.344880015E-1,3.335674630E-1
5.571609670E-1,-1.977989972E-1,-2.324990034E-1,1.344880015E-1,3.335674630E-1
5.610991070E-1,-1.977989972E-1,-2.324990034E-1,1.344880015E-1,3.335674630E-1
5.650369530E-1,-1.977989972E-1,-2.324990034E-1,1.344880015E-1,3.335674630E-1
5.689747990E-1,-2.833299935E-1,-3.266200125E-1,-1.981299929E-2,4.328383910E-1
5.729129190E-1,-2.833299935E-1,-3.266200125E-1,-1.981299929E-2,4.328383910E-1
5.768507650E-1,-2.833299935E-1,-3.266200125E-1,-1.981299929E-2,4.328383910E-1
5.807892270E-1,-2.833299935E-1,-3.266200125E-1,-1.981299929E-2,4.328383910E-1
5.847273810E-1,-2.833299935E-1,-3.266200125E-1,-1.981299929E-2,4.328383910E-1
5.886653040E-1,-2.050600052E-1,-3.800430000E-1,-1.333069950E-1,4.519436276E-1
5.926030730E-1,-2.050600052E-1,-3.800430000E-1,-1.333069950E-1,4.519436276E-1
5.965409810E-1,-2.050600052E-1,-3.800430000E-1,-1.333069950E-1,4.519436276E-1
6.004782120E-1,-2.050600052E-1,-3.800430000E-1,-1.333069950E-1,4.519436276E-1
6.044156730E-1,-2.050600052E-1,-3.800430000E-1,-1.333069950E-1,4.519436276E-1
6.083533090E-1,-2.081740052E-1,-3.926930130E-1,-1.509059966E-1,4.693792056E-1
6.122905400E-1,-2.081740052E-1,-3.926930130E-1,-1.509059966E-1,4.693792056E-1
6.162276930E-1,-2.081740052E-1,-3.926930130E-1,-1.509059966E-1,4.693792056E-1
6.201646930E-1,-2.081740052E-1,-3.926930130E-1,-1.509059966E-1,4.693792056E-1
6.241019240E-1,-2.081740052E-1,-3.926930130E-1,-1.509059966E-1,4.693792056E-1
6.280397700E-1,-1.972779930E-1,-3.373470008E-1,-1.406259984E-1,4.153279149E-1
6.319778470E-1,-1.972779930E-1,-3.373470008E-1,-1.406259984E-1,4.153279149E-1
6.359154630E-1,-1.972779930E-1,-3.373470008E-1,-1.406259984E-1,4.153279149E-1
6.398535400E-1,-1.972779930E-1,-3.373470008E-1,-1.406259984E-1,4.153279149E-1
6.437910440E-1,-1.972779930E-1,-3.373470008E-1,-1.406259984E-1,4.153279149E-1
6.477288900E-1,-1.972779930E-1,-3.373470008E-1,-1.406259984E-1,4.153279149E-1
6.516667360E-1,-1.586049944E-1,-2.821989954E-1,1.983799972E-2,3.243229308E-1
6.556045530E-1,-1.586049944E-1,-2.821989954E-1,1.983799972E-2,3.243229308E-1
6.595424760E-1,-1.586049944E-1,-2.821989954E-1,1.983799972E-2,3.243229308E-1
6.634806300E-1,-1.586049944E-1,-2.821989954E-1,1.983799972E-2,3.243229308E-1
6.674187270E-1,-1.586049944E-1,-2.821989954E-1,1.983799972E-2,3.243229308E-1
6.713565730E-1,-1.600849926E-1,-2.001180053E-1,1.667820066E-1,3.057624219E-1
6.752944190E-1,-1.600849926E-1,-2.001180053E-1,1.667820066E-1,3.057624219E-1
6.792322600E-1,-1.600849926E-1,-2.001180053E-1,1.667820066E-1,3.057624219E-1
6.831698750E-1,-1.600849926E-1,-2.001180053E-1,1.667820066E-1,3.057624219E-1
6.871082600E-1,-1.600849926E-1,-2.001180053E-1,1.667820066E-1,3.057624219E-1
6.910458990E-1,-2.148920000E-1,-2.819870114E-1,2.185000032E-1,4.164582784E-1
6.949837460E-1,-2.148920000E-1,-2.819870114E-1,2.185000032E-1,4.164582784E-1
6.989215920E-1,-2.148920000E-1,-2.819870114E-1,2.185000032E-1,4.164582784E-1
7.028594330E-1,-2.148920000E-1,-2.819870114E-1,2.185000032E-1,4.164582784E-1
7.067975870E-1,-2.148920000E-1,-2.819870114E-1,2.185000032E-1,4.164582784E-1
7.107354330E-1,-2.949849963E-1,-3.238649964E-1,3.111360073E-1,5.373176891E-1
7.146732160E-1,-2.949849963E-1,-3.238649964E-1,3.111360073E-1,5.373176891E-1
7.192886780E-1,-2.949849963E-1,-3.238649964E-1,3.111360073E-1,5.373176891E-1
7.225492930E-1,-2.949849963E-1,-3.238649964E-1,3.111360073E-1,5.373176891E-1
7.264873700E-1,-2.949849963E-1,-3.238649964E-1,3.111360073E-1,5.373176891E-1
7.304250050E-1,-3.318629861E-1,-2.850570083E-1,2.541379929E-1,5.059413592E-1
7.343625440E-1,-3.318629861E-1,-2.850570083E-1,2.541379929E-1,5.059413592E-1
7.383003130E-1,-3.318629861E-1,-2.850570083E-1,2.541379929E-1,5.059413592E-1
7.422378520E-1,-3.318629861E-1,-2.850570083E-1,2.541379929E-1,5.059413592E-1
7.461760050E-1,-3.318629861E-1,-2.850570083E-1,2.541379929E-1,5.059413592E-1
7.501138520E-1,-2.581669986E-1,-2.469380051E-1,1.429380029E-1,3.847854600E-1
7.540517020E-1,-2.581669986E-1,-2.469380051E-1,1.429380029E-1,3.847854600E-1
7.579898560E-1,-2.581669986E-1,-2.469380051E-1,1.429380029E-1,3.847854600E-1
7.619274710E-1,-2.581669986E-1,-2.469380051E-1,1.429380029E-1,3.847854600E-1
7.658652550E-1,-2.581669986E-1,-2.469380051E-1,1.429380029E-1,3.847854600E-1
7.698031010E-1,-1.974840015E-1,-2.907939851E-1,9.997200221E-2,3.654524235E-1
7.737406400E-1,-1.974840015E-1,-2.907939851E-1,9.997200221E-2,3.654524235E-1
7.776785580E-1,-1.974840015E-1,-2.907939851E-1,9.997200221E-2,3.654524235E-1
7.816160960E-1,-1.974840015E-1,-2.907939851E-1,9.997200221E-2,3.654524235E-1
7.855536350E-1,-1.974840015E-1,-2.907939851E-1,9.997200221E-2,3.654524235E-1
7.894914380E-1,-1.236129999E-1,-3.480649889E-1,9.793200344E-2,3.821257483E-1
7.934289770E-1,-1.236129999E-1,-3.480649889E-1,9.793200344E-2,3.821257483E-1
7.973672070E-1,-1.236129999E-1,-3.480649889E-1,9.793200344E-2,3.821257483E-1
8.013055770E-1,-1.236129999E-1,-3.480649889E-1,9.793200344E-2,3.821257483E-1
8.052431920E-1,-1.236129999E-1,-3.480649889E-1,9.793200344E-2,3.821257483E-1
8.091815770E-1,-3.723400086E-2,-3.503830135E-1,9.559799731E-2,3.650939661E-1
8.131197450E-1,-3.723400086E-2,-3.503830135E-1,9.559799731E-2,3.650939661E-1
8.170575910E-1,-3.723400086E-2,-3.503830135E-1,9.559799731E-2,3.650939661E-1
8.209954370E-1,-3.723400086E-2,-3.503830135E-1,9.559799731E-2,3.650939661E-1
8.249333410E-1,-3.723400086E-2,-3.503830135E-1,9.559799731E-2,3.650939661E-1
8.288711110E-1,7.265000138E-3,-3.932259977E-1,1.874549985E-1,4.356820423E-1
8.328092640E-1,7.265000138E-3,-3.932259977E-1,1.874549985E-1,4.356820423E-1
8.367472070E-1,7.265000138E-3,-3.932259977E-1,1.874549985E-1,4.356820423E-1
8.406850530E-1,7.265000138E-3,-3.932259977E-1,1.874549985E-1,4.356820423E-1
8.446231300E-1,7.265000138E-3,-3.932259977E-1,1.874549985E-1,4.356820423E-1
8.485604520E-1,-3.063200042E-2,-3.815009892E-1,2.227199972E-1,4.428154484E-1
8.524982990E-1,-3.063200042E-2,-3.815009892E-1,2.227199972E-1,4.428154484E-1
8.564364520E-1,-3.063200042E-2,-3.815009892E-1,2.227199972E-1,4.428154484E-1
8.603745770E-1,-3.063200042E-2,-3.815009892E-1,2.227199972E-1,4.428154484E-1
8.643126540E-1,-3.063200042E-2,-3.815009892E-1,2.227199972E-1,4.428154484E-1
8.682501930E-1,-1.098489985E-1,-3.153609931E-1,2.144390047E-1,3.968670372E-1
8.721883460E-1,-1.098489985E-1,-3.153609931E-1,2.144390047E-1,3.968670372E-1
8.761262700E-1,-1.098489985E-1,-3.153609931E-1,2.144390047E-1,3.968670372E-1
8.800640390E-1,-1.098489985E-1,-3.153609931E-1,2.144390047E-1,3.968670372E-1
8.840012700E-1,-1.098489985E-1,-3.153609931E-1,2.144390047E-1,3.968670372E-1
8.879385000E-1,-1.218380034E-1,-3.443959951E-1,2.174939960E-1,4.251549586E-1
8.918764230E-1,-1.218380034E-1,-3.443959951E-1,2.174939960E-1,4.251549586E-1
8.958145810E-1,-1.218380034E-1,-3.443959951E-1,2.174939960E-1,4.251549586E-1
8.997523510E-1,-1.218380034E-1,-3.443959951E-1,2.174939960E-1,4.251549586E-1
9.036905040E-1,-1.218380034E-1,-3.443959951E-1,2.174939960E-1,4.251549586E-1
9.076277160E-1,-1.218380034E-1,-3.443959951E-1,2.174939960E-1,4.251549586E-1
9.115655620E-1,-1.348460019E-1,-3.458350003E-1,1.922059953E-1,4.180053065E-1
9.155343750E-1,-1.348460019E-1,-3.458350003E-1,1.922059953E-1,4.180053065E-1
9.195031640E-1,-1.348460019E-1,-3.458350003E-1,1.922059953E-1,4.180053065E-1
9.233776250E-1,-1.348460019E-1,-3.458350003E-1,1.922059953E-1,4.180053065E-1
9.273150870E-1,-1.348460019E-1,-3.458350003E-1,1.922059953E-1,4.180053065E-1
9.312523510E-1,-8.087100089E-2,-3.875919878E-1,1.127479970E-1,4.116792182E-1
9.351901970E-1,-8.087100089E-2,-3.875919878E-1,1.127479970E-1,4.116792182E-1
9.391274280E-1,-8.087100089E-2,-3.875919878E-1,1.127479970E-1,4.116792182E-1
9.430652650E-1,-8.087100089E-2,-3.875919878E-1,1.127479970E-1,4.116792182E-1
9.470028030E-1,-8.087100089E-2,-3.875919878E-1,1.127479970E-1,4.116792182E-1
9.509401110E-1,-2.841299959E-2,-3.876569867E-1,7.562799752E-2,3.959858986E-1
9.548773710E-1,-2.841299959E-2,-3.876569867E-1,7.562799752E-2,3.959858986E-1
9.588152170E-1,-2.841299959E-2,-3.876569867E-1,7.562799752E-2,3.959858986E-1
9.627530630E-1,-2.841299959E-2,-3.876569867E-1,7.562799752E-2,3.959858986E-1
9.666908120E-1,-2.841299959E-2,-3.876569867E-1,7.562799752E-2,3.959858986E-1
9.706281200E-1,4.930600151E-2,-3.866879940E-1,6.724599749E-2,3.955764284E-1
9.745653510E-1,4.930600151E-2,-3.866879940E-1,6.724599749E-2,3.955764284E-1
9.785031780E-1,4.930600151E-2,-3.866879940E-1,6.724599749E-2,3.955764284E-1
9.824409470E-1,4.930600151E-2,-3.866879940E-1,6.724599749E-2,3.955764284E-1
9.863782550E-1,4.930600151E-2,-3.866879940E-1,6.724599749E-2,3.955764284E-1
9.903167110E-1,1.616100036E-2,-4.392330050E-1,1.916000061E-2,4.399476290E-1
9.942547880E-1,1.616100036E-2,-4.392330050E-1,1.916000061E-2,4.399476290E-1
9.981923270E-1,1.616100036E-2,-4.392330050E-1,1.916000061E-2,4.399476290E-1
1.002130164E0,1.616100036E-2,-4.392330050E-1,1.916000061E-2,4.399476290E-1
1.006068933E0,1.616100036E-2,-4.392330050E-1,1.916000061E-2,4.399476290E-1
1.010006856E0,-4.960000049E-3,-4.773490131E-1,1.283899974E-2,4.775474027E-1
1.013945568E0,-4.960000049E-3,-4.773490131E-1,1.283899974E-2,4.775474027E-1
1.017883183E0,-4.960000049E-3,-4.773490131E-1,1.283899974E-2,4.775474027E-1
1.021821337E0,-4.960000049E-3,-4.773490131E-1,1.283899974E-2,4.775474027E-1
1.025759409E0,-4.960000049E-3,-4.773490131E-1,1.283899974E-2,4.775474027E-1
1.029697255E0,-6.773900241E-2,-3.924419880E-1,-3.356799856E-2,3.996574745E-1
1.033634870E0,-6.773900241E-2,-3.924419880E-1,-3.356799856E-2,3.996574745E-1
1.037573255E0,-6.773900241E-2,-3.924419880E-1,-3.356799856E-2,3.996574745E-1
1.041511409E0,-6.773900241E-2,-3.924419880E-1,-3.356799856E-2,3.996574745E-1
1.045449255E0,-6.773900241E-2,-3.924419880E-1,-3.356799856E-2,3.996574745E-1
1.049387433E0,-1.031149998E-1,-3.483960032E-1,-7.933600247E-2,3.718960602E-1
1.053325048E0,-1.031149998E-1,-3.483960032E-1,-7.933600247E-2,3.718960602E-1
1.057262587E0,-1.031149998E-1,-3.483960032E-1,-7.933600247E-2,3.718960602E-1
1.061200457E0,-1.031149998E-1,-3.483960032E-1,-7.933600247E-2,3.718960602E-1
1.065138303E0,-1.031149998E-1,-3.483960032E-1,-7.933600247E-2,3.718960602E-1
1.069076149E0,-1.103909984E-1,-3.318639994E-1,-6.951799989E-2,3.565846869E-1
1.073013899E0,-1.103909984E-1,-3.318639994E-1,-6.951799989E-2,3.565846869E-1
1.076951823E0,-1.103909984E-1,-3.318639994E-1,-6.951799989E-2,3.565846869E-1
1.080889976E0,-1.103909984E-1,-3.318639994E-1,-6.951799989E-2,3.565846869E-1
1.084827746E0,-1.103909984E-1,-3.318639994E-1,-6.951799989E-2,3.565846869E-1
1.088765284E0,-1.574960053E-1,-3.292550147E-1,-3.080599941E-2,3.662824948E-1
1.092702823E0,-1.574960053E-1,-3.292550147E-1,-3.080599941E-2,3.662824948E-1
1.096640976E0,-1.574960053E-1,-3.292550147E-1,-3.080599941E-2,3.662824948E-1
1.100578823E0,-1.574960053E-1,-3.292550147E-1,-3.080599941E-2,3.662824948E-1
1.104516669E0,-1.574960053E-1,-3.292550147E-1,-3.080599941E-2,3.662824948E-1
1.108454216E0,-1.901350021E-1,-2.860040069E-1,9.588000365E-3,3.435717403E-1
1.112392062E0,-1.901350021E-1,-2.860040069E-1,9.588000365E-3,3.435717403E-1
1.116329678E0,-1.901350021E-1,-2.860040069E-1,9.588000365E-3,3.435717403E-1
1.120267447E0,-1.901350021E-1,-2.860040069E-1,9.588000365E-3,3.435717403E-1
1.124205293E0,-1.901350021E-1,-2.860040069E-1,9.588000365E-3,3.435717403E-1
1.128144447E0,-1.901350021E-1,-2.860040069E-1,9.588000365E-3,3.435717403E-1
1.132082620E0,-2.900579870E-1,-2.429659963E-1,-2.853000071E-3,3.783837348E-1
1.136020697E0,-2.900579870E-1,-2.429659963E-1,-2.853000071E-3,3.783837348E-1
1.139958928E0,-2.900579870E-1,-2.429659963E-1,-2.853000071E-3,3.783837348E-1
1.143896981E0,-2.900579870E-1,-2.429659963E-1,-2.853000071E-3,3.783837348E-1
1.147834596E0,-3.893130124E-1,-2.409580052E-1,-2.730000124E-4,4.578487265E-1
1.151772750E0,-3.893130124E-1,-2.409580052E-1,-2.730000124E-4,4.578487265E-1
1.155710823E0,-3.893130124E-1,-2.409580052E-1,-2.730000124E-4,4.578487265E-1
1.159649053E0,-3.893130124E-1,-2.409580052E-1,-2.730000124E-4,4.578487265E-1
1.163587515E0,-3.893130124E-1,-2.409580052E-1,-2.730000124E-4,4.578487265E-1
1.167525707E0,-3.893130124E-1,-2.409580052E-1,-2.730000124E-4,4.578487265E-1
1.171464092E0,-3.239719868E-1,-2.665910125E-1,-7.815399766E-2,4.267747222E-1
1.175402553E0,-3.239719868E-1,-2.665910125E-1,-7.815399766E-2,4.267747222E-1
1.179341092E0,-3.239719868E-1,-2.665910125E-1,-7.815399766E-2,4.267747222E-1
1.183279553E0,-3.239719868E-1,-2.665910125E-1,-7.815399766E-2,4.267747222E-1
1.187218245E0,-3.239719868E-1,-2.665910125E-1,-7.815399766E-2,4.267747222E-1
1.191156466E0,-2.433860004E-1,-3.201520145E-1,2.150600031E-2,4.027363475E-1
1.195094851E0,-2.433860004E-1,-3.201520145E-1,2.150600031E-2,4.027363475E-1
1.199033005E0,-2.433860004E-1,-3.201520145E-1,2.150600031E-2,4.027363475E-1
1.202971534E0,-2.433860004E-1,-3.201520145E-1,2.150600031E-2,4.027363475E-1
1.206909380E0,-2.433860004E-1,-3.201520145E-1,2.150600031E-2,4.027363475E-1
1.210847842E0,-1.880470067E-1,-3.746170104E-1,5.303699896E-2,4.225074016E-1
1.214786307E0,-1.880470067E-1,-3.746170104E-1,5.303699896E-2,4.225074016E-1
1.218724769E0,-1.880470067E-1,-3.746170104E-1,5.303699896E-2,4.225074016E-1
1.222663154E0,-1.880470067E-1,-3.746170104E-1,5.303699896E-2,4.225074016E-1
1.226601991E0,-1.880470067E-1,-3.746170104E-1,5.303699896E-2,4.225074016E-1
1.230540145E0,-6.326500326E-2,-3.616470098E-1,1.247719973E-1,3.877616171E-1
1.234478298E0,-6.326500326E-2,-3.616470098E-1,1.247719973E-1,3.877616171E-1
1.238416346E0,-6.326500326E-2,-3.616470098E-1,1.247719973E-1,3.877616171E-1
1.242354577E0,-6.326500326E-2,-3.616470098E-1,1.247719973E-1,3.877616171E-1
1.246293039E0,-6.326500326E-2,-3.616470098E-1,1.247719973E-1,3.877616171E-1
1.250231077E0,-3.318599984E-2,-3.762719929E-1,1.140659973E-1,3.945794913E-1
1.254169615E0,-3.318599984E-2,-3.762719929E-1,1.140659973E-1,3.945794913E-1
1.258107692E0,-3.318599984E-2,-3.762719929E-1,1.140659973E-1,3.945794913E-1
1.262045538E0,-3.318599984E-2,-3.762719929E-1,1.140659973E-1,3.945794913E-1
1.265984000E0,-3.318599984E-2,-3.762719929E-1,1.140659973E-1,3.945794913E-1
1.269922769E0,-4.390399903E-2,-3.364999890E-1,1.300140023E-1,3.634053447E-1
1.273861217E0,-4.390399903E-2,-3.364999890E-1,1.300140023E-1,3.634053447E-1
1.277799370E0,-4.390399903E-2,-3.364999890E-1,1.300140023E-1,3.634053447E-1
1.281737601E0,-4.390399903E-2,-3.364999890E-1,1.300140023E-1,3.634053447E-1
1.285676077E0,-4.390399903E-2,-3.364999890E-1,1.300140023E-1,3.634053447E-1
1.289614461E0,-4.133100063E-2,-3.238759935E-1,1.726109982E-1,3.693216314E-1
1.293552384E0,-4.133100063E-2,-3.238759935E-1,1.726109982E-1,3.693216314E-1
1.297490543E0,-4.133100063E-2,-3.238759935E-1,1.726109982E-1,3.693216314E-1
1.301428697E0,-4.133100063E-2,-3.238759935E-1,1.726109982E-1,3.693216314E-1
1.305366543E0,-4.133100063E-2,-3.238759935E-1,1.726109982E-1,3.693216314E-1
1.309304678E0,-1.342969984E-1,-2.840769887E-1,2.135850042E-1,3.799394337E-1
1.313242832E0,-1.342969984E-1,-2.840769887E-1,2.135850042E-1,3.799394337E-1
1.317180967E0,-1.342969984E-1,-2.840769887E-1,2.135850042E-1,3.799394337E-1
1.321119121E0,-1.342969984E-1,-2.840769887E-1,2.135850042E-1,3.799394337E-1
1.325056967E0,-1.342969984E-1,-2.840769887E-1,2.135850042E-1,3.799394337E-1
1.328994813E0,-1.866209954E-1,-3.397380114E-1,1.569219977E-1,4.181791789E-1
1.332932294E0,-1.866209954E-1,-3.397380114E-1,1.569219977E-1,4.181791789E-1
1.336870217E0,-1.866209954E-1,-3.397380114E-1,1.569219977E-1,4.181791789E-1
1.340808371E0,-1.866209954E-1,-3.397380114E-1,1.569219977E-1,4.181791789E-1
1.344745899E0,-1.866209954E-1,-3.397380114E-1,1.569219977E-1,4.181791789E-1
1.348683745E0,-2.119800001E-1,-3.682079911E-1,7.120899856E-2,4.307938796E-1
1.352622130E0,-2.119800001E-1,-3.682079911E-1,7.120899856E-2,4.307938796E-1
1.356560019E0,-2.119800001E-1,-3.682079911E-1,7.120899856E-2,4.307938796E-1
1.360497865E0,-2.119800001E-1,-3.682079911E-1,7.120899856E-2,4.307938796E-1
1.364435403E0,-2.119800001E-1,-3.682079911E-1,7.120899856E-2,4.307938796E-1
1.368372942E0,-1.832540035E-1,-3.421080112E-1,5.261300132E-2,3.916478636E-1
1.372311096E0,-1.832540035E-1,-3.421080112E-1,5.261300132E-2,3.916478636E-1
1.376249250E0,-1.832540035E-1,-3.421080112E-1,5.261300132E-2,3.916478636E-1
1.380187639E0,-1.832540035E-1,-3.421080112E-1,5.261300132E-2,3.916478636E-1
1.384125562E0,-1.832540035E-1,-3.421080112E-1,5.261300132E-2,3.916478636E-1
1.388063639E0,-8.683799952E-2,-3.294500113E-1,2.027699910E-2,3.413052955E-1
1.392001817E0,-8.683799952E-2,-3.294500113E-1,2.027699910E-2,3.413052955E-1
1.395939356E0,-8.683799952E-2,-3.294500113E-1,2.027699910E-2,3.413052955E-1
1.399877817E0,-8.683799952E-2,-3.294500113E-1,2.027699910E-2,3.413052955E-1
1.403816024E0,-8.683799952E-2,-3.294500113E-1,2.027699910E-2,3.413052955E-1
1.407754101E0,-8.683799952E-2,-3.294500113E-1,2.027699910E-2,3.413052955E-1
1.411692332E0,-8.670300245E-2,-3.436309993E-1,1.494800020E-2,3.547155438E-1
1.415630526E0,-8.670300245E-2,-3.436309993E-1,1.494800020E-2,3.547155438E-1
1.419568679E0,-8.670300245E-2,-3.436309993E-1,1.494800020E-2,3.547155438E-1
1.423506526E0,-8.670300245E-2,-3.436309993E-1,1.494800020E-2,3.547155438E-1
1.427444635E0,-8.670300245E-2,-3.436309993E-1,1.494800020E-2,3.547155438E-1
1.431382174E0,-7.430899888E-2,-3.844110072E-1,9.889000095E-3,3.916521953E-1
1.435320097E0,-7.430899888E-2,-3.844110072E-1,9.889000095E-3,3.916521953E-1
1.439257885E0,-7.430899888E-2,-3.844110072E-1,9.889000095E-3,3.916521953E-1
1.443195424E0,-7.430899888E-2,-3.844110072E-1,9.889000095E-3,3.916521953E-1
1.447133270E0,-7.430899888E-2,-3.844110072E-1,9.889000095E-3,3.916521953E-1
1.451072054E0,-1.176289991E-1,-3.428649902E-1,5.338000134E-3,3.625210024E-1
1.455009900E0,-1.176289991E-1,-3.428649902E-1,5.338000134E-3,3.625210024E-1
1.458947823E0,-1.176289991E-1,-3.428649902E-1,5.338000134E-3,3.625210024E-1
1.462885622E0,-1.176289991E-1,-3.428649902E-1,5.338000134E-3,3.625210024E-1
1.466823237E0,-1.176289991E-1,-3.428649902E-1,5.338000134E-3,3.625210024E-1
1.470761314E0,-1.342079937E-1,-3.282609880E-1,-1.208500005E-2,3.548423721E-1
1.474699160E0,-1.342079937E-1,-3.282609880E-1,-1.208500005E-2,3.548423721E-1
1.478636776E0,-1.342079937E-1,-3.282609880E-1,-1.208500005E-2,3.548423721E-1
1.482575160E0,-1.342079937E-1,-3.282609880E-1,-1.208500005E-2,3.548423721E-1
1.486513309E0,-1.342079937E-1,-3.282609880E-1,-1.208500005E-2,3.548423721E-1
1.490450924E0,-1.777019948E-1,-3.818550110E-1,2.551000006E-2,4.219502441E-1
1.494388386E0,-1.777019948E-1,-3.818550110E-1,2.551000006E-2,4.219502441E-1
1.498326545E0,-1.777019948E-1,-3.818550110E-1,2.551000006E-2,4.219502441E-1
1.502264468E0,-1.777019948E-1,-3.818550110E-1,2.551000006E-2,4.219502441E-1
1.506202622E0,-1.777019948E-1,-3.818550110E-1,2.551000006E-2,4.219502441E-1
1.510140472E0,-1.390240043E-1,-3.947539926E-1,7.711599767E-2,4.255646432E-1
1.514078549E0,-1.390240043E-1,-3.947539926E-1,7.711599767E-2,4.255646432E-1
1.518016780E0,-1.390240043E-1,-3.947539926E-1,7.711599767E-2,4.255646432E-1
1.521955756E0,-1.390240043E-1,-3.947539926E-1,7.711599767E-2,4.255646432E-1
1.525894525E0,-1.390240043E-1,-3.947539926E-1,7.711599767E-2,4.255646432E-1
1.529832756E0,-1.271400005E-1,-3.397029936E-1,1.292220056E-1,3.850467898E-1
1.533770925E0,-1.271400005E-1,-3.397029936E-1,1.292220056E-1,3.850467898E-1
1.537709309E0,-1.271400005E-1,-3.397029936E-1,1.292220056E-1,3.850467898E-1
1.541647540E0,-1.271400005E-1,-3.397029936E-1,1.292220056E-1,3.850467898E-1
1.545586001E0,-1.271400005E-1,-3.397029936E-1,1.292220056E-1,3.850467898E-1
1.549524155E0,-1.014339998E-1,-2.982999980E-1,8.670099825E-2,3.267855692E-1
1.553462617E0,-1.014339998E-1,-2.982999980E-1,8.670099825E-2,3.267855692E-1
1.557400405E0,-1.014339998E-1,-2.982999980E-1,8.670099825E-2,3.267855692E-1
1.561338328E0,-1.014339998E-1,-2.982999980E-1,8.670099825E-2,3.267855692E-1
1.565276482E0,-1.014339998E-1,-2.982999980E-1,8.670099825E-2,3.267855692E-1
1.569214872E0,-1.436749995E-1,-3.249880075E-1,4.505300149E-2,3.581752134E-1
1.573153333E0,-1.436749995E-1,-3.249880075E-1,4.505300149E-2,3.581752134E-1
1.577091179E0,-1.436749995E-1,-3.249880075E-1,4.505300149E-2,3.581752134E-1
1.581029026E0,-1.436749995E-1,-3.249880075E-1,4.505300149E-2,3.581752134E-1
1.584967179E0,-1.436749995E-1,-3.249880075E-1,4.505300149E-2,3.581752134E-1
1.588905102E0,-1.041050032E-1,-3.244580030E-1,1.125650033E-1,3.588617107E-1
1.592843501E0,-1.041050032E-1,-3.244580030E-1,1.125650033E-1,3.588617107E-1
1.596781424E0,-1.041050032E-1,-3.244580030E-1,1.125650033E-1,3.588617107E-1
1.600719193E0,-1.041050032E-1,-3.244580030E-1,1.125650033E-1,3.588617107E-1
1.604657625E0,-1.041050032E-1,-3.244580030E-1,1.125650033E-1,3.588617107E-1
1.608595240E0,-9.178099781E-2,-3.375709951E-1,1.253190041E-1,3.715949153E-1
1.612533394E0,-9.178099781E-2,-3.375709951E-1,1.253190041E-1,3.715949153E-1
1.616472163E0,-9.178099781E-2,-3.375709951E-1,1.253190041E-1,3.715949153E-1
1.620410240E0,-9.178099781E-2,-3.375709951E-1,1.253190041E-1,3.715949153E-1
1.624348164E0,-9.178099781E-2,-3.375709951E-1,1.253190041E-1,3.715949153E-1
1.628285707E0,-6.587699801E-2,-3.370710015E-1,6.967400014E-2,3.504441542E-1
1.632223553E0,-6.587699801E-2,-3.370710015E-1,6.967400014E-2,3.504441542E-1
1.636162322E0,-6.587699801E-2,-3.370710015E-1,6.967400014E-2,3.504441542E-1
1.640100164E0,-6.587699801E-2,-3.370710015E-1,6.967400014E-2,3.504441542E-1
1.644037702E0,-6.587699801E-2,-3.370710015E-1,6.967400014E-2,3.504441542E-1
1.647976087E0,-1.082760021E-1,-3.637320101E-1,2.752899937E-2,3.805029745E-1
1.651913919E0,-1.082760021E-1,-3.637320101E-1,2.752899937E-2,3.805029745E-1
1.655851457E0,-1.082760021E-1,-3.637320101E-1,2.752899937E-2,3.805029745E-1
1.659789611E0,-1.082760021E-1,-3.637320101E-1,2.752899937E-2,3.805029745E-1
1.663727485E0,-1.082760021E-1,-3.637320101E-1,2.752899937E-2,3.805029745E-1
1.667665639E0,-1.082760021E-1,-3.637320101E-1,2.752899937E-2,3.805029745E-1
1.671603562E0,-1.372260004E-1,-4.175519943E-1,6.713499874E-2,4.446209073E-1
1.675541408E0,-1.372260004E-1,-4.175519943E-1,6.713499874E-2,4.446209073E-1
1.679478947E0,-1.372260004E-1,-4.175519943E-1,6.713499874E-2,4.446209073E-1
1.683417331E0,-1.372260004E-1,-4.175519943E-1,6.713499874E-2,4.446209073E-1
1.687355188E0,-1.372260004E-1,-4.175519943E-1,6.713499874E-2,4.446209073E-1
1.691292803E0,-1.390720010E-1,-3.759840131E-1,1.610440016E-1,4.320187149E-1
1.695231265E0,-1.390720010E-1,-3.759840131E-1,1.610440016E-1,4.320187149E-1
1.699169361E0,-1.390720010E-1,-3.759840131E-1,1.610440016E-1,4.320187149E-1
1.703107207E0,-1.390720010E-1,-3.759840131E-1,1.610440016E-1,4.320187149E-1
1.707045053E0,-1.390720010E-1,-3.759840131E-1,1.610440016E-1,4.320187149E-1
1.710982909E0,-1.003020033E-1,-3.616319895E-1,1.041690037E-1,3.894731942E-1
1.714951890E0,-1.003020033E-1,-3.616319895E-1,1.041690037E-1,3.894731942E-1
1.718920833E0,-1.003020033E-1,-3.616319895E-1,1.041690037E-1,3.894731942E-1
1.722796755E0,-1.003020033E-1,-3.616319895E-1,1.041690037E-1,3.894731942E-1
1.726734294E0,-1.003020033E-1,-3.616319895E-1,1.041690037E-1,3.894731942E-1
1.730672217E0,-1.435019970E-1,-3.200280070E-1,1.888900064E-2,3.512371603E-1
1.734610385E0,-1.435019970E-1,-3.200280070E-1,1.888900064E-2,3.512371603E-1
1.738548538E0,-1.435019970E-1,-3.200280070E-1,1.888900064E-2,3.512371603E-1
1.742486923E0,-1.435019970E-1,-3.200280070E-1,1.888900064E-2,3.512371603E-1
1.746424769E0,-1.435019970E-1,-3.200280070E-1,1.888900064E-2,3.512371603E-1
1.750363000E0,-1.458570063E-1,-3.329289854E-1,1.496899966E-2,3.637857151E-1
1.754300846E0,-1.458570063E-1,-3.329289854E-1,1.496899966E-2,3.637857151E-1
1.758238289E0,-1.458570063E-1,-3.329289854E-1,1.496899966E-2,3.637857151E-1
1.762176212E0,-1.458570063E-1,-3.329289854E-1,1.496899966E-2,3.637857151E-1
1.766113981E0,-1.458570063E-1,-3.329289854E-1,1.496899966E-2,3.637857151E-1
1.770051832E0,-2.024289966E-1,-3.595010042E-1,-4.267799854E-2,4.147769066E-1
1.773990371E0,-2.024289966E-1,-3.595010042E-1,-4.267799854E-2,4.147769066E-1
1.777929063E0,-2.024289966E-1,-3.595010042E-1,-4.267799854E-2,4.147769066E-1
1.781867236E0,-2.024289966E-1,-3.595010042E-1,-4.267799854E-2,4.147769066E-1
1.785805082E0,-2.024289966E-1,-3.595010042E-1,-4.267799854E-2,4.147769066E-1
1.789742928E0,-2.042099983E-1,-3.180510104E-1,-4.315000027E-3,3.779904599E-1
1.793681390E0,-2.042099983E-1,-3.180510104E-1,-4.315000027E-3,3.779904599E-1
1.797619544E0,-2.042099983E-1,-3.180510104E-1,-4.315000027E-3,3.779904599E-1
1.801557774E0,-2.042099983E-1,-3.180510104E-1,-4.315000027E-3,3.779904599E-1
1.805496135E0,-2.042099983E-1,-3.180510104E-1,-4.315000027E-3,3.779904599E-1
1.809434366E0,-2.194209993E-1,-2.902710140E-1,7.238000166E-3,3.639439863E-1
1.813372520E0,-2.194209993E-1,-2.902710140E-1,7.238000166E-3,3.639439863E-1
1.817310250E0,-2.194209993E-1,-2.902710140E-1,7.238000166E-3,3.639439863E-1
1.821248404E0,-2.194209993E-1,-2.902710140E-1,7.238000166E-3,3.639439863E-1
1.825186558E0,-2.194209993E-1,-2.902710140E-1,7.238000166E-3,3.639439863E-1
1.829124793E0,-1.526280046E-1,-2.898289859E-1,1.909700036E-2,3.281171198E-1
1.833062947E0,-1.526280046E-1,-2.898289859E-1,1.909700036E-2,3.281171198E-1
1.837001332E0,-1.526280046E-1,-2.898289859E-1,1.909700036E-2,3.281171198E-1
1.840939486E0,-1.526280046E-1,-2.898289859E-1,1.909700036E-2,3.281171198E-1
1.844877640E0,-1.526280046E-1,-2.898289859E-1,1.909700036E-2,3.281171198E-1
1.848815486E0,-1.127640009E-1,-3.576009870E-1,4.491699859E-2,3.776396729E-1
1.852753630E0,-1.127640009E-1,-3.576009870E-1,4.491699859E-2,3.776396729E-1
1.856692091E0,-1.127640009E-1,-3.576009870E-1,4.491699859E-2,3.776396729E-1
1.860629937E0,-1.127640009E-1,-3.576009870E-1,4.491699859E-2,3.776396729E-1
1.864567553E0,-1.127640009E-1,-3.576009870E-1,4.491699859E-2,3.776396729E-1
1.868505707E0,-8.620399982E-2,-3.301320076E-1,5.762799829E-2,3.460336085E-1
1.872443553E0,-8.620399982E-2,-3.301320076E-1,5.762799829E-2,3.460336085E-1
1.876381385E0,-8.620399982E-2,-3.301320076E-1,5.762799829E-2,3.460336085E-1
1.880319462E0,-8.620399982E-2,-3.301320076E-1,5.762799829E-2,3.460336085E-1
1.884257693E0,-8.620399982E-2,-3.301320076E-1,5.762799829E-2,3.460336085E-1
1.888195831E0,-8.672100306E-2,-3.708089888E-1,5.703200027E-2,3.850616673E-1
1.892133985E0,-8.672100306E-2,-3.708089888E-1,5.703200027E-2,3.850616673E-1
1.896072447E0,-8.672100306E-2,-3.708089888E-1,5.703200027E-2,3.850616673E-1
1.900010923E0,-8.672100306E-2,-3.708089888E-1,5.703200027E-2,3.850616673E-1
1.903949385E0,-8.672100306E-2,-3.708089888E-1,5.703200027E-2,3.850616673E-1
1.907887770E0,-6.009100005E-2,-3.569450080E-1,4.302300140E-2,3.645156316E-1
1.911825947E0,-6.009100005E-2,-3.569450080E-1,4.302300140E-2,3.645156316E-1
1.913793846E0,-6.009100005E-2,-3.569450080E-1,4.302300140E-2,3.645156316E-1
1.915764179E0,-6.009100005E-2,-3.569450080E-1,4.302300140E-2,3.645156316E-1
1.923640091E0,-6.009100005E-2,-3.569450080E-1,4.302300140E-2,3.645156316E-1
1.927578014E0,-6.009100005E-2,-3.569450080E-1,4.302300140E-2,3.645156316E-1
1.931516168E0,-7.445099950E-2,-3.702209890E-1,5.672299862E-2,3.818691276E-1
1.935453981E0,-7.445099950E-2,-3.702209890E-1,5.672299862E-2,3.818691276E-1
1.939392058E0,-7.445099950E-2,-3.702209890E-1,5.672299862E-2,3.818691276E-1
1.943330212E0,-7.445099950E-2,-3.702209890E-1,5.672299862E-2,3.818691276E-1
1.947268163E0,-7.445099950E-2,-3.702209890E-1,5.672299862E-2,3.818691276E-1
1.951206856E0,-1.296360046E-1,-3.290179968E-1,8.422400057E-2,3.635271904E-1
1.955145086E0,-1.296360046E-1,-3.290179968E-1,8.422400057E-2,3.635271904E-1
1.959083221E0,-1.296360046E-1,-3.290179968E-1,8.422400057E-2,3.635271904E-1
1.963021606E0,-1.296360046E-1,-3.290179968E-1,8.422400057E-2,3.635271904E-1
1.966959760E0,-1.296360046E-1,-3.290179968E-1,8.422400057E-2,3.635271904E-1
1.970897572E0,-1.303229928E-1,-3.559350073E-1,5.709699914E-2,3.833195523E-1
1.974835726E0,-1.303229928E-1,-3.559350073E-1,5.709699914E-2,3.833195523E-1
1.978773880E0,-1.303229928E-1,-3.559350073E-1,5.709699914E-2,3.833195523E-1
1.982711794E0,-1.303229928E-1,-3.559350073E-1,5.709699914E-2,3.833195523E-1
1.986649640E0,-1.303229928E-1,-3.559350073E-1,5.709699914E-2,3.833195523E-1
1.990587794E0,-1.719599962E-1,-3.283370137E-1,2.661000006E-3,3.706514748E-1
1.994526572E0,-1.719599962E-1,-3.283370137E-1,2.661000006E-3,3.706514748E-1
1.998464726E0,-1.719599962E-1,-3.283370137E-1,2.661000006E-3,3.706514748E-1
2.002402572E0,-1.719599962E-1,-3.283370137E-1,2.661000006E-3,3.706514748E-1
2.006340991E0,-1.719599962E-1,-3.283370137E-1,2.661000006E-3,3.706514748E-1
2.010279452E0,-2.000419945E-1,-3.279600143E-1,1.620000042E-2,3.844957874E-1
2.014217683E0,-2.000419945E-1,-3.279600143E-1,1.620000042E-2,3.844957874E-1
2.018156110E0,-2.000419945E-1,-3.279600143E-1,1.620000042E-2,3.844957874E-1
2.022094187E0,-2.000419945E-1,-3.279600143E-1,1.620000042E-2,3.844957874E-1
2.026032957E0,-2.000419945E-1,-3.279600143E-1,1.620000042E-2,3.844957874E-1
2.029971105E0,-2.010820061E-1,-3.138749897E-1,-1.114599966E-2,3.729285664E-1
2.033909336E0,-2.010820061E-1,-3.138749897E-1,-1.114599966E-2,3.729285664E-1
2.037847490E0,-2.010820061E-1,-3.138749897E-1,-1.114599966E-2,3.729285664E-1
2.041785933E0,-2.010820061E-1,-3.138749897E-1,-1.114599966E-2,3.729285664E-1
2.045724394E0,-2.010820061E-1,-3.138749897E-1,-1.114599966E-2,3.729285664E-1
2.049662240E0,-2.022210062E-1,-2.725099921E-1,2.297000028E-3,3.393527771E-1
2.053600707E0,-2.022210062E-1,-2.725099921E-1,2.297000028E-3,3.393527771E-1
2.057539476E0,-2.022210062E-1,-2.725099921E-1,2.297000028E-3,3.393527771E-1
2.061477861E0,-2.022210062E-1,-2.725099921E-1,2.297000028E-3,3.393527771E-1
2.065416092E0,-2.022210062E-1,-2.725099921E-1,2.297000028E-3,3.393527771E-1
2.069354784E0,-1.760569960E-1,-3.265349865E-1,5.640000105E-2,3.752360902E-1
2.073293015E0,-1.760569960E-1,-3.265349865E-1,5.640000105E-2,3.752360902E-1
2.077231490E0,-1.760569960E-1,-3.265349865E-1,5.640000105E-2,3.752360902E-1
2.081169336E0,-1.760569960E-1,-3.265349865E-1,5.640000105E-2,3.752360902E-1
2.085107183E0,-1.760569960E-1,-3.265349865E-1,5.640000105E-2,3.752360902E-1
2.089045322E0,-1.768189967E-1,-3.262459934E-1,8.295100182E-2,3.802397592E-1
2.092983707E0,-1.768189967E-1,-3.262459934E-1,8.295100182E-2,3.802397592E-1
2.096921630E0,-1.768189967E-1,-3.262459934E-1,8.295100182E-2,3.802397592E-1
2.100860087E0,-1.768189967E-1,-3.262459934E-1,8.295100182E-2,3.802397592E-1
2.104798471E0,-1.768189967E-1,-3.262459934E-1,8.295100182E-2,3.802397592E-1
2.108736394E0,-1.229699999E-1,-3.533050120E-1,1.089769974E-1,3.896434759E-1
2.112674760E0,-1.229699999E-1,-3.533050120E-1,1.089769974E-1,3.896434759E-1
2.116612683E0,-1.229699999E-1,-3.533050120E-1,1.089769974E-1,3.896434759E-1
2.120550760E0,-1.229699999E-1,-3.533050120E-1,1.089769974E-1,3.896434759E-1
2.124488943E0,-1.229699999E-1,-3.533050120E-1,1.089769974E-1,3.896434759E-1
2.128427097E0,-1.643110067E-1,-3.532240093E-1,9.377499670E-2,4.006982127E-1
2.132365251E0,-1.643110067E-1,-3.532240093E-1,9.377499670E-2,4.006982127E-1
2.136303188E0,-1.643110067E-1,-3.532240093E-1,9.377499670E-2,4.006982127E-1
2.140241265E0,-1.643110067E-1,-3.532240093E-1,9.377499670E-2,4.006982127E-1
2.144179495E0,-1.643110067E-1,-3.532240093E-1,9.377499670E-2,4.006982127E-1
2.148117635E0,-1.646620035E-1,-3.259699941E-1,5.121299997E-2,3.687719943E-1
2.152056020E0,-1.646620035E-1,-3.259699941E-1,5.121299997E-2,3.687719943E-1
2.155993943E0,-1.646620035E-1,-3.259699941E-1,5.121299997E-2,3.687719943E-1
2.159932121E0,-1.646620035E-1,-3.259699941E-1,5.121299997E-2,3.687719943E-1
2.163870275E0,-1.646620035E-1,-3.259699941E-1,5.121299997E-2,3.687719943E-1
2.167808428E0,-1.646620035E-1,-3.259699941E-1,5.121299997E-2,3.687719943E-1
2.171746808E0,-1.645410061E-1,-3.125300109E-1,8.911999874E-3,3.533103086E-1
2.175685039E0,-1.645410061E-1,-3.125300109E-1,8.911999874E-3,3.533103086E-1
2.179623116E0,-1.645410061E-1,-3.125300109E-1,8.911999874E-3,3.533103086E-1
2.183561678E0,-1.645410061E-1,-3.125300109E-1,8.911999874E-3,3.533103086E-1
2.187500448E0,-1.645410061E-1,-3.125300109E-1,8.911999874E-3,3.533103086E-1
2.191439448E0,-1.230420023E-1,-3.537819982E-1,4.862799868E-2,3.777111579E-1
2.195377967E0,-1.230420023E-1,-3.537819982E-1,4.862799868E-2,3.777111579E-1
2.199316429E0,-1.230420023E-1,-3.537819982E-1,4.862799868E-2,3.777111579E-1
2.203254813E0,-1.230420023E-1,-3.537819982E-1,4.862799868E-2,3.777111579E-1
2.207193000E0,-1.230420023E-1,-3.537819982E-1,4.862799868E-2,3.777111579E-1
2.211131231E0,-1.627639979E-1,-3.135460019E-1,1.291379929E-1,3.761380538E-1
2.215069308E0,-1.627639979E-1,-3.135460019E-1,1.291379929E-1,3.761380538E-1
2.219007231E0,-1.627639979E-1,-3.135460019E-1,1.291379929E-1,3.761380538E-1
2.222945692E0,-1.627639979E-1,-3.135460019E-1,1.291379929E-1,3.761380538E-1
2.226883539E0,-1.627639979E-1,-3.135460019E-1,1.291379929E-1,3.761380538E-1
2.230821933E0,-1.343239993E-1,-2.869800031E-1,7.319299877E-2,3.252040499E-1
2.234760395E0,-1.343239993E-1,-2.869800031E-1,7.319299877E-2,3.252040499E-1
2.238698241E0,-1.343239993E-1,-2.869800031E-1,7.319299877E-2,3.252040499E-1
2.242636453E0,-1.343239993E-1,-2.869800031E-1,7.319299877E-2,3.252040499E-1
2.246574607E0,-1.343239993E-1,-2.869800031E-1,7.319299877E-2,3.252040499E-1
2.250513299E0,-2.012560070E-1,-3.557470143E-1,3.539999947E-3,4.087449695E-1
2.254451467E0,-2.012560070E-1,-3.557470143E-1,3.539999947E-3,4.087449695E-1
2.258390005E0,-2.012560070E-1,-3.557470143E-1,3.539999947E-3,4.087449695E-1
2.262328082E0,-2.012560070E-1,-3.557470143E-1,3.539999947E-3,4.087449695E-1
2.266266231E0,-2.012560070E-1,-3.557470143E-1,3.539999947E-3,4.087449695E-1
2.270204385E0,-2.137710005E-1,-3.700299859E-1,6.980500370E-2,4.330045839E-1
2.274142923E0,-2.137710005E-1,-3.700299859E-1,6.980500370E-2,4.330045839E-1
2.278080688E0,-2.137710005E-1,-3.700299859E-1,6.980500370E-2,4.330045839E-1
2.282018841E0,-2.137710005E-1,-3.700299859E-1,6.980500370E-2,4.330045839E-1
2.285957380E0,-2.137710005E-1,-3.700299859E-1,6.980500370E-2,4.330045839E-1
2.289895803E0,-1.176889986E-1,-3.296999931E-1,8.116099983E-2,3.593603954E-1
2.293834188E0,-1.176889986E-1,-3.296999931E-1,8.116099983E-2,3.593603954E-1
2.297772111E0,-1.176889986E-1,-3.296999931E-1,8.116099983E-2,3.593603954E-1
2.301710303E0,-1.176889986E-1,-3.296999931E-1,8.116099983E-2,3.593603954E-1
2.305648149E0,-1.176889986E-1,-3.296999931E-1,8.116099983E-2,3.593603954E-1
2.309586534E0,-9.004899859E-2,-3.709630072E-1,6.497900188E-2,3.872268657E-1
2.313524385E0,-9.004899859E-2,-3.709630072E-1,6.497900188E-2,3.872268657E-1
2.317462308E0,-9.004899859E-2,-3.709630072E-1,6.497900188E-2,3.872268657E-1
2.321400154E0,-9.004899859E-2,-3.709630072E-1,6.497900188E-2,3.872268657E-1
2.325338197E0,-9.004899859E-2,-3.709630072E-1,6.497900188E-2,3.872268657E-1
2.329276120E0,-7.618600130E-2,-3.849219978E-1,7.589899749E-2,3.996622436E-1
2.333213966E0,-7.618600130E-2,-3.849219978E-1,7.589899749E-2,3.996622436E-1
2.337152385E0,-7.618600130E-2,-3.849219978E-1,7.589899749E-2,3.996622436E-1
2.341090539E0,-7.618600130E-2,-3.849219978E-1,7.589899749E-2,3.996622436E-1
2.345028385E0,-7.618600130E-2,-3.849219978E-1,7.589899749E-2,3.996622436E-1
2.348966019E0,-6.256999820E-2,-3.851430118E-1,7.329399884E-2,3.970165670E-1
2.352903789E0,-6.256999820E-2,-3.851430118E-1,7.329399884E-2,3.970165670E-1
2.356841942E0,-6.256999820E-2,-3.851430118E-1,7.329399884E-2,3.970165670E-1
2.360779784E0,-6.256999820E-2,-3.851430118E-1,7.329399884E-2,3.970165670E-1
2.364717707E0,-6.256999820E-2,-3.851430118E-1,7.329399884E-2,3.970165670E-1
2.368656091E0,-7.685700059E-2,-3.714230061E-1,7.086700201E-2,3.858551282E-1
2.372594236E0,-7.685700059E-2,-3.714230061E-1,7.086700201E-2,3.858551282E-1
2.376532467E0,-7.685700059E-2,-3.714230061E-1,7.086700201E-2,3.858551282E-1
2.380470621E0,-7.685700059E-2,-3.714230061E-1,7.086700201E-2,3.858551282E-1
2.384408486E0,-7.685700059E-2,-3.714230061E-1,7.086700201E-2,3.858551282E-1
2.388346871E0,-1.598519981E-1,-3.165509999E-1,2.777400054E-2,3.557085772E-1
2.392285024E0,-1.598519981E-1,-3.165509999E-1,2.777400054E-2,3.557085772E-1
2.396222621E0,-1.598519981E-1,-3.165509999E-1,2.777400054E-2,3.557085772E-1
2.400160467E0,-1.598519981E-1,-3.165509999E-1,2.777400054E-2,3.557085772E-1
2.404098852E0,-1.598519981E-1,-3.165509999E-1,2.777400054E-2,3.557085772E-1
2.408037322E0,-1.615449935E-1,-3.159489930E-1,-1.511699986E-2,3.551747102E-1
2.411975476E0,-1.615449935E-1,-3.159489930E-1,-1.511699986E-2,3.551747102E-1
2.415913938E0,-1.615449935E-1,-3.159489930E-1,-1.511699986E-2,3.551747102E-1
2.419851861E0,-1.615449935E-1,-3.159489930E-1,-1.511699986E-2,3.551747102E-1
2.423790015E0,-1.615449935E-1,-3.159489930E-1,-1.511699986E-2,3.551747102E-1
2.427728168E0,-1.615449935E-1,-3.159489930E-1,-1.511699986E-2,3.551747102E-1
2.431666039E0,-1.768160015E-1,-3.562180102E-1,6.468199939E-2,4.029130554E-1
2.435603808E0,-1.768160015E-1,-3.562180102E-1,6.468199939E-2,4.029130554E-1
2.439541962E0,-1.768160015E-1,-3.562180102E-1,6.468199939E-2,4.029130554E-1
2.443480409E0,-1.768160015E-1,-3.562180102E-1,6.468199939E-2,4.029130554E-1
2.447418640E0,-1.768160015E-1,-3.562180102E-1,6.468199939E-2,4.029130554E-1
2.451356794E0,-2.054789960E-1,-3.148480058E-1,2.216500044E-2,3.766193991E-1
2.455295163E0,-2.054789960E-1,-3.148480058E-1,2.216500044E-2,3.766193991E-1
2.459233394E0,-2.054789960E-1,-3.148480058E-1,2.216500044E-2,3.766193991E-1
2.463171471E0,-2.054789960E-1,-3.148480058E-1,2.216500044E-2,3.766193991E-1
2.467109029E0,-2.054789960E-1,-3.148480058E-1,2.216500044E-2,3.766193991E-1
2.471045721E0,-1.794860065E-1,-3.280209899E-1,2.068400010E-2,3.744874153E-1
2.474982952E0,-1.794860065E-1,-3.280209899E-1,2.068400010E-2,3.744874153E-1
2.478920726E0,-1.794860065E-1,-3.280209899E-1,2.068400010E-2,3.744874153E-1
2.482858264E0,-1.794860065E-1,-3.280209899E-1,2.068400010E-2,3.744874153E-1
2.486796111E0,-1.794860065E-1,-3.280209899E-1,2.068400010E-2,3.744874153E-1
2.490734010E0,-2.350029945E-1,-3.276520073E-1,-2.141699940E-2,4.037832751E-1
2.494672087E0,-2.350029945E-1,-3.276520073E-1,-2.141699940E-2,4.037832751E-1
2.498609702E0,-2.350029945E-1,-3.276520073E-1,-2.141699940E-2,4.037832751E-1
2.502547534E0,-2.350029945E-1,-3.276520073E-1,-2.141699940E-2,4.037832751E-1
2.506485611E0,-2.350029945E-1,-3.276520073E-1,-2.141699940E-2,4.037832751E-1
2.510423227E0,-1.813540012E-1,-2.864859998E-1,-2.230500057E-2,3.397955487E-1
2.514361077E0,-1.813540012E-1,-2.864859998E-1,-2.230500057E-2,3.397955487E-1
2.518299154E0,-1.813540012E-1,-2.864859998E-1,-2.230500057E-2,3.397955487E-1
2.522237000E0,-1.813540012E-1,-2.864859998E-1,-2.230500057E-2,3.397955487E-1
2.526174288E0,-1.813540012E-1,-2.864859998E-1,-2.230500057E-2,3.397955487E-1
2.530112365E0,-1.412039995E-1,-3.542940021E-1,4.554000217E-3,3.814230568E-1
2.534049981E0,-1.412039995E-1,-3.542940021E-1,4.554000217E-3,3.814230568E-1
2.537987495E0,-1.412039995E-1,-3.542940021E-1,4.554000217E-3,3.814230568E-1
2.541925572E0,-1.412039995E-1,-3.542940021E-1,4.554000217E-3,3.814230568E-1
2.545863803E0,-1.412039995E-1,-3.542940021E-1,4.554000217E-3,3.814230568E-1
2.549801924E0,-1.689160019E-1,-3.268359900E-1,4.542800039E-2,3.706994514E-1
2.553740385E0,-1.689160019E-1,-3.268359900E-1,4.542800039E-2,3.706994514E-1
2.557678616E0,-1.689160019E-1,-3.268359900E-1,4.542800039E-2,3.706994514E-1
2.561616453E0,-1.689160019E-1,-3.268359900E-1,4.542800039E-2,3.706994514E-1
2.565554915E0,-1.689160019E-1,-3.268359900E-1,4.542800039E-2,3.706994514E-1
2.569492761E0,-1.281789988E-1,-3.539940119E-1,4.574500024E-2,3.792548236E-1
2.573430237E0,-1.281789988E-1,-3.539940119E-1,4.574500024E-2,3.792548236E-1
2.577368083E0,-1.281789988E-1,-3.539940119E-1,4.574500024E-2,3.792548236E-1
2.581305698E0,-1.281789988E-1,-3.539940119E-1,4.574500024E-2,3.792548236E-1
2.585243237E0,-1.281789988E-1,-3.539940119E-1,4.574500024E-2,3.792548236E-1
2.589181083E0,-1.685760021E-1,-3.269239962E-1,5.986199901E-2,3.726669112E-1
2.593119468E0,-1.685760021E-1,-3.269239962E-1,5.986199901E-2,3.726669112E-1
2.597057631E0,-1.685760021E-1,-3.269239962E-1,5.986199901E-2,3.726669112E-1
2.600995785E0,-1.685760021E-1,-3.269239962E-1,5.986199901E-2,3.726669112E-1
2.604934016E0,-1.685760021E-1,-3.269239962E-1,5.986199901E-2,3.726669112E-1
2.608872401E0,-1.403380036E-1,-3.273420036E-1,7.394299656E-2,3.637514389E-1
2.612810862E0,-1.403380036E-1,-3.273420036E-1,7.394299656E-2,3.637514389E-1
2.616749631E0,-1.403380036E-1,-3.273420036E-1,7.394299656E-2,3.637514389E-1
2.620687876E0,-1.403380036E-1,-3.273420036E-1,7.394299656E-2,3.637514389E-1
2.624626338E0,-1.403380036E-1,-3.273420036E-1,7.394299656E-2,3.637514389E-1
2.628565030E0,-1.662490070E-1,-3.279129863E-1,1.988800056E-2,3.681863543E-1
2.632502934E0,-1.662490070E-1,-3.279129863E-1,1.988800056E-2,3.681863543E-1
2.636441626E0,-1.662490070E-1,-3.279129863E-1,1.988800056E-2,3.681863543E-1
2.640379780E0,-1.662490070E-1,-3.279129863E-1,1.988800056E-2,3.681863543E-1
2.644317621E0,-1.662490070E-1,-3.279129863E-1,1.988800056E-2,3.681863543E-1
2.648256083E0,-1.784449965E-1,-3.285410106E-1,2.016299963E-2,3.744173593E-1
2.652193929E0,-1.784449965E-1,-3.285410106E-1,2.016299963E-2,3.744173593E-1
2.656132372E0,-1.784449965E-1,-3.285410106E-1,2.016299963E-2,3.744173593E-1
2.660070295E0,-1.784449965E-1,-3.285410106E-1,2.016299963E-2,3.744173593E-1
2.664008679E0,-1.784449965E-1,-3.285410106E-1,2.016299963E-2,3.744173593E-1
2.667946540E0,-1.784449965E-1,-3.285410106E-1,2.016299963E-2,3.744173593E-1
2.671884693E0,-1.361909956E-1,-3.155409992E-1,7.482499629E-2,3.517284315E-1
2.675822540E0,-1.361909956E-1,-3.155409992E-1,7.482499629E-2,3.517284315E-1
2.679760169E0,-1.361909956E-1,-3.155409992E-1,7.482499629E-2,3.517284315E-1
2.683698246E0,-1.361909956E-1,-3.155409992E-1,7.482499629E-2,3.517284315E-1
2.687636708E0,-1.361909956E-1,-3.155409992E-1,7.482499629E-2,3.517284315E-1
2.691574323E0,-1.350969970E-1,-3.568890095E-1,4.773399979E-2,3.845770383E-1
2.695512477E0,-1.350969970E-1,-3.568890095E-1,4.773399979E-2,3.845770383E-1
2.699449938E0,-1.350969970E-1,-3.568890095E-1,4.773399979E-2,3.845770383E-1
2.703387861E0,-1.350969970E-1,-3.568890095E-1,4.773399979E-2,3.845770383E-1
2.707325708E0,-1.350969970E-1,-3.568890095E-1,4.773399979E-2,3.845770383E-1
2.711264169E0,-1.342339963E-1,-3.300339878E-1,6.951000076E-3,3.563558828E-1
2.715233270E0,-1.342339963E-1,-3.300339878E-1,6.951000076E-3,3.563558828E-1
2.719202329E0,-1.342339963E-1,-3.300339878E-1,6.951000076E-3,3.563558828E-1
2.723078328E0,-1.342339963E-1,-3.300339878E-1,6.951000076E-3,3.563558828E-1
2.727016482E0,-1.342339963E-1,-3.300339878E-1,6.951000076E-3,3.563558828E-1
2.730954237E0,-1.198939979E-1,-3.576149940E-1,4.767400026E-2,3.801787277E-1
2.734892083E0,-1.198939979E-1,-3.576149940E-1,4.767400026E-2,3.801787277E-1
2.738829929E0,-1.198939979E-1,-3.576149940E-1,4.767400026E-2,3.801787277E-1
2.742767832E0,-1.198939979E-1,-3.576149940E-1,4.767400026E-2,3.801787277E-1
2.746705602E0,-1.198939979E-1,-3.576149940E-1,4.767400026E-2,3.801787277E-1
2.750643448E0,-1.195560023E-1,-3.714320064E-1,4.715999961E-2,3.930387240E-1
2.754581376E0,-1.195560023E-1,-3.714320064E-1,4.715999961E-2,3.930387240E-1
2.758519530E0,-1.195560023E-1,-3.714320064E-1,4.715999961E-2,3.930387240E-1
2.762457684E0,-1.195560023E-1,-3.714320064E-1,4.715999961E-2,3.930387240E-1
2.766395790E0,-1.195560023E-1,-3.714320064E-1,4.715999961E-2,3.930387240E-1
2.770333943E0,-7.897199690E-2,-3.577660024E-1,5.981399864E-2,3.712287748E-1
2.774272020E0,-7.897199690E-2,-3.577660024E-1,5.981399864E-2,3.712287748E-1
2.778210251E0,-7.897199690E-2,-3.577660024E-1,5.981399864E-2,3.712287748E-1
2.782148328E0,-7.897199690E-2,-3.577660024E-1,5.981399864E-2,3.712287748E-1
2.786086251E0,-7.897199690E-2,-3.577660024E-1,5.981399864E-2,3.712287748E-1
2.790023727E0,-9.365300089E-2,-3.573909998E-1,5.851599947E-2,3.740632747E-1
2.793961573E0,-9.365300089E-2,-3.573909998E-1,5.851599947E-2,3.740632747E-1
2.797899804E0,-9.365300089E-2,-3.573909998E-1,5.851599947E-2,3.740632747E-1
2.801838169E0,-9.365300089E-2,-3.573909998E-1,5.851599947E-2,3.740632747E-1
2.805776323E0,-9.365300089E-2,-3.573909998E-1,5.851599947E-2,3.740632747E-1
2.809714246E0,-1.360239983E-1,-3.568120003E-1,1.633200049E-2,3.822094529E-1
2.813652059E0,-1.360239983E-1,-3.568120003E-1,1.633200049E-2,3.822094529E-1
2.817589521E0,-1.360239983E-1,-3.568120003E-1,1.633200049E-2,3.822094529E-1
2.821527136E0,-1.360239983E-1,-3.568120003E-1,1.633200049E-2,3.822094529E-1
2.825465554E0,-1.360239983E-1,-3.568120003E-1,1.633200049E-2,3.822094529E-1
2.829403708E0,-1.649370044E-1,-3.561350107E-1,-2.557300031E-2,3.933069280E-1
2.833341323E0,-1.649370044E-1,-3.561350107E-1,-2.557300031E-2,3.933069280E-1
2.837279419E0,-1.649370044E-1,-3.561350107E-1,-2.557300031E-2,3.933069280E-1
2.841217650E0,-1.649370044E-1,-3.561350107E-1,-2.557300031E-2,3.933069280E-1
2.845155804E0,-1.649370044E-1,-3.561350107E-1,-2.557300031E-2,3.933069280E-1
2.849093593E0,-1.665160060E-1,-3.554739952E-1,-3.992599994E-2,3.945673922E-1
2.853031516E0,-1.665160060E-1,-3.554739952E-1,-3.992599994E-2,3.945673922E-1
2.856969901E0,-1.665160060E-1,-3.554739952E-1,-3.992599994E-2,3.945673922E-1
2.860908131E0,-1.665160060E-1,-3.554739952E-1,-3.992599994E-2,3.945673922E-1
2.864847208E0,-1.665160060E-1,-3.554739952E-1,-3.992599994E-2,3.945673922E-1
2.868785670E0,-1.679950058E-1,-3.139910102E-1,-2.694300003E-2,3.571254706E-1
2.872724660E0,-1.679950058E-1,-3.139910102E-1,-2.694300003E-2,3.571254706E-1
2.876663429E0,-1.679950058E-1,-3.139910102E-1,-2.694300003E-2,3.571254706E-1
2.880601968E0,-1.679950058E-1,-3.139910102E-1,-2.694300003E-2,3.571254706E-1
2.884540117E0,-1.679950058E-1,-3.139910102E-1,-2.694300003E-2,3.571254706E-1
2.888478501E0,-1.829369962E-1,-2.861810029E-1,5.435800180E-2,3.439771843E-1
2.892416347E0,-1.829369962E-1,-2.861810029E-1,5.435800180E-2,3.439771843E-1
2.896354448E0,-1.829369962E-1,-2.861810029E-1,5.435800180E-2,3.439771843E-1
2.900292679E0,-1.829369962E-1,-2.861810029E-1,5.435800180E-2,3.439771843E-1
2.904230525E0,-1.829369962E-1,-2.861810029E-1,5.435800180E-2,3.439771843E-1
2.908168055E0,-1.432929933E-1,-3.537299931E-1,4.070200026E-2,3.838156364E-1
2.912106131E0,-1.432929933E-1,-3.537299931E-1,4.070200026E-2,3.838156364E-1
2.916044088E0,-1.432929933E-1,-3.537299931E-1,4.070200026E-2,3.838156364E-1
2.919982165E0,-1.432929933E-1,-3.537299931E-1,4.070200026E-2,3.838156364E-1
2.923920318E0,-1.432929933E-1,-3.537299931E-1,4.070200026E-2,3.838156364E-1
2.927858549E0,-1.432929933E-1,-3.537299931E-1,4.070200026E-2,3.838156364E-1
2.931796626E0,-1.308050007E-1,-3.531849980E-1,4.103099927E-2,3.788576698E-1
2.935734549E0,-1.308050007E-1,-3.531849980E-1,4.103099927E-2,3.788576698E-1
2.939672703E0,-1.308050007E-1,-3.531849980E-1,4.103099927E-2,3.788576698E-1
2.943610756E0,-1.308050007E-1,-3.531849980E-1,4.103099927E-2,3.788576698E-1
2.947549294E0,-1.308050007E-1,-3.531849980E-1,4.103099927E-2,3.788576698E-1
2.951488064E0,-1.455020010E-1,-3.526510000E-1,1.427999977E-2,3.817557839E-1
2.955426482E0,-1.455020010E-1,-3.526510000E-1,1.427999977E-2,3.817557839E-1
2.959364713E0,-1.455020010E-1,-3.526510000E-1,1.427999977E-2,3.817557839E-1
2.963303175E0,-1.455020010E-1,-3.526510000E-1,1.427999977E-2,3.817557839E-1
2.967241973E0,-1.455020010E-1,-3.526510000E-1,1.427999977E-2,3.817557839E-1
2.971180665E0,-1.328960061E-1,-3.657439947E-1,1.438000007E-3,3.891427578E-1
2.975119204E0,-1.328960061E-1,-3.657439947E-1,1.438000007E-3,3.891427578E-1
2.979057232E0,-1.328960061E-1,-3.657439947E-1,1.438000007E-3,3.891427578E-1
2.982995462E0,-1.328960061E-1,-3.657439947E-1,1.438000007E-3,3.891427578E-1
2.986933616E0,-1.328960061E-1,-3.657439947E-1,1.438000007E-3,3.891427578E-1
2.990872011E0,-1.338109970E-1,-3.516150117E-1,2.515000058E-3,3.762244338E-1
2.994810165E0,-1.338109970E-1,-3.516150117E-1,2.515000058E-3,3.762244338E-1
2.998748011E0,-1.338109970E-1,-3.516150117E-1,2.515000058E-3,3.762244338E-1
3.002686179E0,-1.338109970E-1,-3.516150117E-1,2.515000058E-3,3.762244338E-1
3.006624409E0,-1.338109970E-1,-3.516150117E-1,2.515000058E-3,3.762244338E-1
3.010562563E0,-1.074019969E-1,-3.511449993E-1,5.808100104E-2,3.717679412E-1
3.014501030E0,-1.074019969E-1,-3.511449993E-1,5.808100104E-2,3.717679412E-1
3.018439491E0,-1.074019969E-1,-3.511449993E-1,5.808100104E-2,3.717679412E-1
3.022377876E0,-1.074019969E-1,-3.511449993E-1,5.808100104E-2,3.717679412E-1
3.026316401E0,-1.074019969E-1,-3.511449993E-1,5.808100104E-2,3.717679412E-1
3.030254170E0,-1.761959940E-1,-3.234840035E-1,1.845699921E-2,3.688191829E-1
3.034192324E0,-1.761959940E-1,-3.234840035E-1,1.845699921E-2,3.688191829E-1
3.038130515E0,-1.761959940E-1,-3.234840035E-1,1.845699921E-2,3.688191829E-1
3.042068669E0,-1.761959940E-1,-3.234840035E-1,1.845699921E-2,3.688191829E-1
3.046007362E0,-1.761959940E-1,-3.234840035E-1,1.845699921E-2,3.688191829E-1
3.049945592E0,-1.902859956E-1,-3.095450103E-1,6.089000031E-3,3.634060394E-1
3.053884285E0,-1.902859956E-1,-3.095450103E-1,6.089000031E-3,3.634060394E-1
3.057823054E0,-1.902859956E-1,-3.095450103E-1,6.089000031E-3,3.634060394E-1
3.061761602E0,-1.902859956E-1,-3.095450103E-1,6.089000031E-3,3.634060394E-1
3.065700064E0,-1.902859956E-1,-3.095450103E-1,6.089000031E-3,3.634060394E-1
3.069638449E0,-2.176910043E-1,-3.502359986E-1,-2.003099956E-2,4.128630148E-1
3.073576991E0,-2.176910043E-1,-3.502359986E-1,-2.003099956E-2,4.128630148E-1
3.077515376E0,-2.176910043E-1,-3.502359986E-1,-2.003099956E-2,4.128630148E-1
3.081453837E0,-2.176910043E-1,-3.502359986E-1,-2.003099956E-2,4.128630148E-1
3.085392044E0,-2.176910043E-1,-3.502359986E-1,-2.003099956E-2,4.128630148E-1
3.089331121E0,-2.174900025E-1,-3.502469957E-1,8.170999587E-3,4.123610365E-1
3.093269352E0,-2.174900025E-1,-3.502469957E-1,8.170999587E-3,4.123610365E-1
3.097207189E0,-2.174900025E-1,-3.502469957E-1,8.170999587E-3,4.123610365E-1
3.101145958E0,-2.174900025E-1,-3.502469957E-1,8.170999587E-3,4.123610365E-1
3.105084343E0,-2.174900025E-1,-3.502469957E-1,8.170999587E-3,4.123610365E-1
3.109023126E0,-1.354350001E-1,-3.503420055E-1,4.973100126E-2,3.788869654E-1
3.112961357E0,-1.354350001E-1,-3.503420055E-1,4.973100126E-2,3.788869654E-1
3.116900645E0,-1.354350001E-1,-3.503420055E-1,4.973100126E-2,3.788869654E-1
3.120839491E0,-1.354350001E-1,-3.503420055E-1,4.973100126E-2,3.788869654E-1
3.124778491E0,-1.354350001E-1,-3.503420055E-1,4.973100126E-2,3.788869654E-1
3.128717337E0,-1.080330014E-1,-3.503679931E-1,5.030800030E-2,3.700807410E-1
3.132656380E0,-1.080330014E-1,-3.503679931E-1,5.030800030E-2,3.700807410E-1
3.136594841E0,-1.080330014E-1,-3.503679931E-1,5.030800030E-2,3.700807410E-1
3.140533303E0,-1.080330014E-1,-3.503679931E-1,5.030800030E-2,3.700807410E-1
3.144471770E0,-1.080330014E-1,-3.503679931E-1,5.030800030E-2,3.700807410E-1
3.148410231E0,-1.080579981E-1,-3.094550073E-1,7.801900059E-2,3.369360428E-1
3.152349000E0,-1.080579981E-1,-3.094550073E-1,7.801900059E-2,3.369360428E-1
3.156287760E0,-1.080579981E-1,-3.094550073E-1,7.801900059E-2,3.369360428E-1
3.160225990E0,-1.080579981E-1,-3.094550073E-1,7.801900059E-2,3.369360428E-1
3.164164683E0,-1.080579981E-1,-3.094550073E-1,7.801900059E-2,3.369360428E-1
3.168102947E0,-1.490069926E-1,-3.502480090E-1,2.387600020E-2,3.813749009E-1
3.172041640E0,-1.490069926E-1,-3.502480090E-1,2.387600020E-2,3.813749009E-1
3.175980486E0,-1.490069926E-1,-3.502480090E-1,2.387600020E-2,3.813749009E-1
3.179919163E0,-1.490069926E-1,-3.502480090E-1,2.387600020E-2,3.813749009E-1
3.183857625E0,-1.490069926E-1,-3.502480090E-1,2.387600020E-2,3.813749009E-1
3.187796394E0,-1.491069943E-1,-3.093250096E-1,2.407599986E-2,3.442303169E-1
3.191734563E0,-1.491069943E-1,-3.093250096E-1,2.407599986E-2,3.442303169E-1
3.195673409E0,-1.491069943E-1,-3.093250096E-1,2.407599986E-2,3.442303169E-1
3.199612101E0,-1.491069943E-1,-3.093250096E-1,2.407599986E-2,3.442303169E-1
3.203551168E0,-1.491069943E-1,-3.093250096E-1,2.407599986E-2,3.442303169E-1
3.207489630E0,-1.491069943E-1,-3.093250096E-1,2.407599986E-2,3.442303169E-1
3.211428091E0,-1.764409989E-1,-3.229160011E-1,7.838200033E-2,3.762311893E-1
3.215366943E0,-1.764409989E-1,-3.229160011E-1,7.838200033E-2,3.762311893E-1
3.219305327E0,-1.764409989E-1,-3.229160011E-1,7.838200033E-2,3.762311893E-1
3.223244096E0,-1.764409989E-1,-3.229160011E-1,7.838200033E-2,3.762311893E-1
3.227182866E0,-1.764409989E-1,-3.229160011E-1,7.838200033E-2,3.762311893E-1
3.231121635E0,-1.765249968E-1,-3.501780033E-1,7.767199725E-2,3.997732453E-1
3.235060173E0,-1.765249968E-1,-3.501780033E-1,7.767199725E-2,3.997732453E-1
3.238998635E0,-1.765249968E-1,-3.501780033E-1,7.767199725E-2,3.997732453E-1
3.242938020E0,-1.765249968E-1,-3.501780033E-1,7.767199725E-2,3.997732453E-1
3.246876712E0,-1.765249968E-1,-3.501780033E-1,7.767199725E-2,3.997732453E-1
3.250815563E0,-1.357209980E-1,-3.638480008E-1,6.314899772E-2,3.934378641E-1
3.254754025E0,-1.357209980E-1,-3.638480008E-1,6.314899772E-2,3.934378641E-1
3.258692486E0,-1.357209980E-1,-3.638480008E-1,6.314899772E-2,3.934378641E-1
3.262630938E0,-1.357209980E-1,-3.638480008E-1,6.314899772E-2,3.934378641E-1
3.266569707E0,-1.357209980E-1,-3.638480008E-1,6.314899772E-2,3.934378641E-1
3.270508168E0,-9.491000324E-2,-3.502680063E-1,-1.932200044E-2,3.634128846E-1
3.274446861E0,-9.491000324E-2,-3.502680063E-1,-1.932200044E-2,3.634128846E-1
3.278385092E0,-9.491000324E-2,-3.502680063E-1,-1.932200044E-2,3.634128846E-1
3.282323553E0,-9.491000324E-2,-3.502680063E-1,-1.932200044E-2,3.634128846E-1
3.286262337E0,-9.491000324E-2,-3.502680063E-1,-1.932200044E-2,3.634128846E-1
3.290200799E0,-1.358779967E-1,-3.638879955E-1,-1.989899948E-2,3.889386499E-1
3.294139799E0,-1.358779967E-1,-3.638879955E-1,-1.989899948E-2,3.889386499E-1
3.298077693E0,-1.358779967E-1,-3.638879955E-1,-1.989899948E-2,3.889386499E-1
3.302016462E0,-1.358779967E-1,-3.638879955E-1,-1.989899948E-2,3.889386499E-1
3.305954924E0,-1.358779967E-1,-3.638879955E-1,-1.989899948E-2,3.889386499E-1
3.309893958E0,-1.769389957E-1,-3.638429940E-1,2.040899917E-2,4.050995677E-1
3.313832496E0,-1.769389957E-1,-3.638429940E-1,2.040899917E-2,4.050995677E-1
3.317771175E0,-1.769389957E-1,-3.638429940E-1,2.040899917E-2,4.050995677E-1
3.321709944E0,-1.769389957E-1,-3.638429940E-1,2.040899917E-2,4.050995677E-1
3.325649098E0,-1.769389957E-1,-3.638429940E-1,2.040899917E-2,4.050995677E-1
3.329588381E0,-1.364820004E-1,-3.500800133E-1,6.266000215E-3,3.757959751E-1
3.333527228E0,-1.364820004E-1,-3.500800133E-1,6.266000215E-3,3.757959751E-1
3.337465997E0,-1.364820004E-1,-3.500800133E-1,6.266000215E-3,3.757959751E-1
3.341404439E0,-1.364820004E-1,-3.500800133E-1,6.266000215E-3,3.757959751E-1
3.345343516E0,-1.364820004E-1,-3.500800133E-1,6.266000215E-3,3.757959751E-1
3.349282516E0,-1.506409943E-1,-3.498710096E-1,-2.141699940E-2,3.815247310E-1
3.353220963E0,-1.506409943E-1,-3.498710096E-1,-2.141699940E-2,3.815247310E-1
3.357159501E0,-1.506409943E-1,-3.498710096E-1,-2.141699940E-2,3.815247310E-1
3.361097963E0,-1.506409943E-1,-3.498710096E-1,-2.141699940E-2,3.815247310E-1
3.365037011E0,-1.506409943E-1,-3.498710096E-1,-2.141699940E-2,3.815247310E-1
3.368975857E0,-1.104639992E-1,-3.223449886E-1,1.909900084E-2,3.412819342E-1
3.372914857E0,-1.104639992E-1,-3.223449886E-1,1.909900084E-2,3.412819342E-1
3.376853304E0,-1.104639992E-1,-3.223449886E-1,1.909900084E-2,3.412819342E-1
3.380791842E0,-1.104639992E-1,-3.223449886E-1,1.909900084E-2,3.412819342E-1
3.384730842E0,-1.104639992E-1,-3.223449886E-1,1.909900084E-2,3.412819342E-1
3.388669602E0,-1.792020053E-1,-3.629150093E-1,1.908499934E-2,4.051973591E-1
3.392608679E0,-1.792020053E-1,-3.629150093E-1,1.908499934E-2,4.051973591E-1
3.396547218E0,-1.792020053E-1,-3.629150093E-1,1.908499934E-2,4.051973591E-1
3.400486592E0,-1.792020053E-1,-3.629150093E-1,1.908499934E-2,4.051973591E-1
3.404425054E0,-1.792020053E-1,-3.629150093E-1,1.908499934E-2,4.051973591E-1
3.408363823E0,-1.932840049E-1,-3.081960082E-1,1.941099949E-2,3.643079370E-1
3.412302611E0,-1.932840049E-1,-3.081960082E-1,1.941099949E-2,3.643079370E-1
3.416241304E0,-1.932840049E-1,-3.081960082E-1,1.941099949E-2,3.643079370E-1
3.420180381E0,-1.932840049E-1,-3.081960082E-1,1.941099949E-2,3.643079370E-1
3.424119530E0,-1.932840049E-1,-3.081960082E-1,1.941099949E-2,3.643079370E-1
3.428058223E0,-1.392010003E-1,-3.079789877E-1,4.705600068E-2,3.412363441E-1
3.431996377E0,-1.392010003E-1,-3.079789877E-1,4.705600068E-2,3.412363441E-1
3.435934914E0,-1.392010003E-1,-3.079789877E-1,4.705600068E-2,3.412363441E-1
3.439873376E0,-1.392010003E-1,-3.079789877E-1,4.705600068E-2,3.412363441E-1
3.443812376E0,-1.392010003E-1,-3.079789877E-1,4.705600068E-2,3.412363441E-1
3.447750861E0,-1.392010003E-1,-3.079789877E-1,4.705600068E-2,3.412363441E-1
3.451689400E0,-1.124730036E-1,-3.485499918E-1,6.870999932E-3,3.663120036E-1
3.455627861E0,-1.124730036E-1,-3.485499918E-1,6.870999932E-3,3.663120036E-1
3.459566309E0,-1.124730036E-1,-3.485499918E-1,6.870999932E-3,3.663120036E-1
3.463505078E0,-1.124730036E-1,-3.485499918E-1,6.870999932E-3,3.663120036E-1
3.467443770E0,-1.124730036E-1,-3.485499918E-1,6.870999932E-3,3.663120036E-1
3.471382237E0,-1.403550059E-1,-3.617849946E-1,2.155099995E-2,3.886545453E-1
3.475320391E0,-1.403550059E-1,-3.617849946E-1,2.155099995E-2,3.886545453E-1
3.479258621E0,-1.403550059E-1,-3.617849946E-1,2.155099995E-2,3.886545453E-1
3.483197015E0,-1.403550059E-1,-3.617849946E-1,2.155099995E-2,3.886545453E-1
3.487135246E0,-1.403550059E-1,-3.617849946E-1,2.155099995E-2,3.886545453E-1
3.491073938E0,-1.546359956E-1,-3.477419913E-1,2.299799956E-2,3.812685296E-1
3.495012698E0,-1.546359956E-1,-3.477419913E-1,2.299799956E-2,3.812685296E-1
3.498951160E0,-1.546359956E-1,-3.477419913E-1,2.299799956E-2,3.812685296E-1
3.502890006E0,-1.546359956E-1,-3.477419913E-1,2.299799956E-2,3.812685296E-1
3.506828352E0,-1.546359956E-1,-3.477419913E-1,2.299799956E-2,3.812685296E-1
3.510766890E0,-1.824339926E-1,-3.201400042E-1,2.425700054E-2,3.692698011E-1
3.514705280E0,-1.824339926E-1,-3.201400042E-1,2.425700054E-2,3.692698011E-1
3.519280434E0,-1.824339926E-1,-3.201400042E-1,2.425700054E-2,3.692698011E-1
3.522581049E0,-1.824339926E-1,-3.201400042E-1,2.425700054E-2,3.692698011E-1
3.526518588E0,-1.824339926E-1,-3.201400042E-1,2.425700054E-2,3.692698011E-1
3.530456760E0,-1.420190036E-1,-3.062469959E-1,6.591500342E-2,3.439497166E-1
3.534394837E0,-1.420190036E-1,-3.062469959E-1,6.591500342E-2,3.439497166E-1
3.538332453E0,-1.420190036E-1,-3.062469959E-1,6.591500342E-2,3.439497166E-1
3.542270304E0,-1.420190036E-1,-3.062469959E-1,6.591500342E-2,3.439497166E-1
3.546208381E0,-1.420190036E-1,-3.062469959E-1,6.591500342E-2,3.439497166E-1
3.550146535E0,-1.832869947E-1,-3.468750119E-1,8.007799834E-2,4.004108916E-1
3.554084982E0,-1.832869947E-1,-3.468750119E-1,8.007799834E-2,4.004108916E-1
3.558022521E0,-1.832869947E-1,-3.468750119E-1,8.007799834E-2,4.004108916E-1
3.561960059E0,-1.832869947E-1,-3.468750119E-1,8.007799834E-2,4.004108916E-1
3.565897694E0,-1.832869947E-1,-3.468750119E-1,8.007799834E-2,4.004108916E-1
3.569835771E0,-1.832869947E-1,-3.060140014E-1,1.073189974E-1,3.724997432E-1
3.573774001E0,-1.832869947E-1,-3.060140014E-1,1.073189974E-1,3.724997432E-1
3.577712136E0,-1.832869947E-1,-3.060140014E-1,1.073189974E-1,3.724997432E-1
3.581649982E0,-1.832869947E-1,-3.060140014E-1,1.073189974E-1,3.724997432E-1
3.585588059E0,-1.832869947E-1,-3.060140014E-1,1.073189974E-1,3.724997432E-1
3.589525919E0,-1.562490016E-1,-3.195259869E-1,5.303699896E-2,3.596158090E-1
3.593463843E0,-1.562490016E-1,-3.195259869E-1,5.303699896E-2,3.596158090E-1
3.597401612E0,-1.562490016E-1,-3.195259869E-1,5.303699896E-2,3.596158090E-1
3.601339516E0,-1.562490016E-1,-3.195259869E-1,5.303699896E-2,3.596158090E-1
3.605277362E0,-1.562490016E-1,-3.195259869E-1,5.303699896E-2,3.596158090E-1
3.609215208E0,-1.018230021E-1,-3.195280135E-1,5.270700157E-2,3.394762188E-1
3.613153680E0,-1.018230021E-1,-3.195280135E-1,5.270700157E-2,3.394762188E-1
3.617092141E0,-1.018230021E-1,-3.195280135E-1,5.270700157E-2,3.394762188E-1
3.621030218E0,-1.018230021E-1,-3.195280135E-1,5.270700157E-2,3.394762188E-1
3.624968646E0,-1.018230021E-1,-3.195280135E-1,5.270700157E-2,3.394762188E-1
3.628906877E0,-1.426489949E-1,-3.468729854E-1,5.167099833E-2,3.786020283E-1
3.632845338E0,-1.426489949E-1,-3.468729854E-1,5.167099833E-2,3.786020283E-1
3.636783737E0,-1.426489949E-1,-3.468729854E-1,5.167099833E-2,3.786020283E-1
3.640722275E0,-1.426489949E-1,-3.468729854E-1,5.167099833E-2,3.786020283E-1
3.644660737E0,-1.426489949E-1,-3.468729854E-1,5.167099833E-2,3.786020283E-1
3.648598930E0,-1.562830061E-1,-3.469960093E-1,2.288299985E-2,3.812535117E-1
3.652537622E0,-1.562830061E-1,-3.469960093E-1,2.288299985E-2,3.812535117E-1
3.656475853E0,-1.562830061E-1,-3.469960093E-1,2.288299985E-2,3.812535117E-1
3.660413944E0,-1.562830061E-1,-3.469960093E-1,2.288299985E-2,3.812535117E-1
3.664352097E0,-1.562830061E-1,-3.469960093E-1,2.288299985E-2,3.812535117E-1
3.668290251E0,-1.563020051E-1,-3.198730052E-1,2.135800011E-2,3.566584085E-1
3.672228376E0,-1.563020051E-1,-3.198730052E-1,2.135800011E-2,3.566584085E-1
3.676166299E0,-1.563020051E-1,-3.198730052E-1,2.135800011E-2,3.566584085E-1
3.680103761E0,-1.563020051E-1,-3.198730052E-1,2.135800011E-2,3.566584085E-1
3.684041669E0,-1.563020051E-1,-3.198730052E-1,2.135800011E-2,3.566584085E-1
3.687979207E0,-1.562869996E-1,-3.200260103E-1,6.047699973E-2,3.612474789E-1
3.691917361E0,-1.562869996E-1,-3.200260103E-1,6.047699973E-2,3.612474789E-1
3.695855217E0,-1.562869996E-1,-3.200260103E-1,6.047699973E-2,3.612474789E-1
3.699793602E0,-1.562869996E-1,-3.200260103E-1,6.047699973E-2,3.612474789E-1
3.703731756E0,-1.562869996E-1,-3.200260103E-1,6.047699973E-2,3.612474789E-1
3.707669635E0,-1.562869996E-1,-3.200260103E-1,6.047699973E-2,3.612474789E-1
3.711607866E0,-1.561949998E-1,-3.202190101E-1,4.504400119E-2,3.591184407E-1
3.715577096E0,-1.561949998E-1,-3.202190101E-1,4.504400119E-2,3.591184407E-1
3.719546309E0,-1.561949998E-1,-3.202190101E-1,4.504400119E-2,3.591184407E-1
3.723422231E0,-1.561949998E-1,-3.202190101E-1,4.504400119E-2,3.591184407E-1
3.727360155E0,-1.561949998E-1,-3.202190101E-1,4.504400119E-2,3.591184407E-1
3.731297674E0,-1.560509950E-1,-3.476839960E-1,4.313300177E-2,3.835316544E-1
3.735235136E0,-1.560509950E-1,-3.476839960E-1,4.313300177E-2,3.835316544E-1
3.739172751E0,-1.560509950E-1,-3.476839960E-1,4.313300177E-2,3.835316544E-1
3.743110582E0,-1.560509950E-1,-3.476839960E-1,4.313300177E-2,3.835316544E-1
3.747048044E0,-1.560509950E-1,-3.476839960E-1,4.313300177E-2,3.835316544E-1
3.750985582E0,-1.423159987E-1,-3.479059935E-1,5.470699817E-2,3.798490219E-1
3.754923491E0,-1.423159987E-1,-3.479059935E-1,5.470699817E-2,3.798490219E-1
3.758861260E0,-1.423159987E-1,-3.479059935E-1,5.470699817E-2,3.798490219E-1
3.762799184E0,-1.423159987E-1,-3.479059935E-1,5.470699817E-2,3.798490219E-1
3.766737001E0,-1.423159987E-1,-3.479059935E-1,5.470699817E-2,3.798490219E-1
3.770674847E0,-1.150190011E-1,-3.753390014E-1,6.633400172E-2,3.981318078E-1
3.774613001E0,-1.150190011E-1,-3.753390014E-1,6.633400172E-2,3.981318078E-1
3.778551150E0,-1.150190011E-1,-3.753390014E-1,6.633400172E-2,3.981318078E-1
3.782489611E0,-1.150190011E-1,-3.753390014E-1,6.633400172E-2,3.981318078E-1
3.786427227E0,-1.150190011E-1,-3.753390014E-1,6.633400172E-2,3.981318078E-1
3.790365630E0,-6.061600149E-2,-3.754450083E-1,3.735199943E-2,3.821366585E-1
3.794303861E0,-6.061600149E-2,-3.754450083E-1,3.735199943E-2,3.821366585E-1
3.798242246E0,-6.061600149E-2,-3.754450083E-1,3.735199943E-2,3.821366585E-1
3.802180106E0,-6.061600149E-2,-3.754450083E-1,3.735199943E-2,3.821366585E-1
3.806118029E0,-6.061600149E-2,-3.754450083E-1,3.735199943E-2,3.821366585E-1
3.810056106E0,-8.817999810E-2,-3.617799878E-1,-4.749999847E-3,3.724017107E-1
3.813994659E0,-8.817999810E-2,-3.617799878E-1,-4.749999847E-3,3.724017107E-1
3.817932813E0,-8.817999810E-2,-3.617799878E-1,-4.749999847E-3,3.724017107E-1
3.821871198E0,-8.817999810E-2,-3.617799878E-1,-4.749999847E-3,3.724017107E-1
3.825809318E0,-8.817999810E-2,-3.617799878E-1,-4.749999847E-3,3.724017107E-1
3.829747548E0,-1.432410032E-1,-3.615880013E-1,7.957000285E-3,3.890079453E-1
3.833685318E0,-1.432410032E-1,-3.615880013E-1,7.957000285E-3,3.890079453E-1
3.837623428E0,-1.432410032E-1,-3.615880013E-1,7.957000285E-3,3.890079453E-1
3.841561275E0,-1.432410032E-1,-3.615880013E-1,7.957000285E-3,3.890079453E-1
3.845498890E0,-1.432410032E-1,-3.615880013E-1,7.957000285E-3,3.890079453E-1
3.849436716E0,-1.577299982E-1,-3.612470031E-1,3.448100016E-2,3.956855936E-1
3.853374255E0,-1.577299982E-1,-3.612470031E-1,3.448100016E-2,3.956855936E-1
3.857312332E0,-1.577299982E-1,-3.612470031E-1,3.448100016E-2,3.956855936E-1
3.861250270E0,-1.577299982E-1,-3.612470031E-1,3.448100016E-2,3.956855936E-1
3.865188731E0,-1.577299982E-1,-3.612470031E-1,3.448100016E-2,3.956855936E-1
3.869127424E0,-1.180699989E-1,-2.790240049E-1,3.387600183E-2,3.048647298E-1
3.873065582E0,-1.180699989E-1,-2.790240049E-1,3.387600183E-2,3.048647298E-1
3.877004044E0,-1.180699989E-1,-2.790240049E-1,3.387600183E-2,3.048647298E-1
3.880942198E0,-1.180699989E-1,-2.790240049E-1,3.387600183E-2,3.048647298E-1
3.884880145E0,-1.180699989E-1,-2.790240049E-1,3.387600183E-2,3.048647298E-1
3.888818530E0,-1.603389978E-1,-3.192830086E-1,6.057199836E-2,3.623799122E-1
3.892756683E0,-1.603389978E-1,-3.192830086E-1,6.057199836E-2,3.623799122E-1
3.896694841E0,-1.603389978E-1,-3.192830086E-1,6.057199836E-2,3.623799122E-1
3.900632995E0,-1.603389978E-1,-3.192830086E-1,6.057199836E-2,3.623799122E-1
3.904571457E0,-1.603389978E-1,-3.192830086E-1,6.057199836E-2,3.623799122E-1
3.908509904E0,-1.211379990E-1,-3.458020091E-1,4.644500092E-2,3.693380327E-1
3.912447443E0,-1.211379990E-1,-3.458020091E-1,4.644500092E-2,3.693380327E-1
3.916385072E0,-1.211379990E-1,-3.458020091E-1,4.644500092E-2,3.693380327E-1
3.920322918E0,-1.211379990E-1,-3.458020091E-1,4.644500092E-2,3.693380327E-1
3.924260687E0,-1.211379990E-1,-3.458020091E-1,4.644500092E-2,3.693380327E-1
3.928198534E0,-9.589499980E-2,-3.449240029E-1,1.276880056E-1,3.800955742E-1
3.932136376E0,-9.589499980E-2,-3.449240029E-1,1.276880056E-1,3.800955742E-1
3.936073683E0,-9.589499980E-2,-3.449240029E-1,1.276880056E-1,3.800955742E-1
3.940011453E0,-9.589499980E-2,-3.449240029E-1,1.276880056E-1,3.800955742E-1
3.943949366E0,-9.589499980E-2,-3.449240029E-1,1.276880056E-1,3.800955742E-1
3.947886904E0,-9.589499980E-2,-3.449240029E-1,1.276880056E-1,3.800955742E-1
3.951824981E0,-1.252910048E-1,-3.167360127E-1,8.627399802E-2,3.513726517E-1
3.955762250E0,-1.252910048E-1,-3.167360127E-1,8.627399802E-2,3.513726517E-1
3.959699788E0,-1.252910048E-1,-3.167360127E-1,8.627399802E-2,3.513726517E-1
3.963637635E0,-1.252910048E-1,-3.167360127E-1,8.627399802E-2,3.513726517E-1
3.967575409E0,-1.252910048E-1,-3.167360127E-1,8.627399802E-2,3.513726517E-1
3.971513255E0,-1.953549981E-1,-3.022800088E-1,4.458799958E-2,3.626635751E-1
3.975451101E0,-1.953549981E-1,-3.022800088E-1,4.458799958E-2,3.626635751E-1
3.979389279E0,-1.953549981E-1,-3.022800088E-1,4.458799958E-2,3.626635751E-1
3.983327202E0,-1.953549981E-1,-3.022800088E-1,4.458799958E-2,3.626635751E-1
3.987265587E0,-1.953549981E-1,-3.022800088E-1,4.458799958E-2,3.626635751E-1
3.991203741E0,-1.970040053E-1,-3.152309954E-1,2.986500040E-2,3.729250284E-1
3.995141894E0,-1.970040053E-1,-3.152309954E-1,2.986500040E-2,3.729250284E-1
3.999079817E0,-1.970040053E-1,-3.152309954E-1,2.986500040E-2,3.729250284E-1
4.003017664E0,-1.970040053E-1,-3.152309954E-1,2.986500040E-2,3.729250284E-1
4.006955433E0,-1.970040053E-1,-3.152309954E-1,2.986500040E-2,3.729250284E-1
4.010893356E0,-1.303279996E-1,-3.419109881E-1,2.866699919E-2,3.670290290E-1
4.014831140E0,-1.303279996E-1,-3.419109881E-1,2.866699919E-2,3.670290290E-1
4.018768986E0,-1.303279996E-1,-3.419109881E-1,2.866699919E-2,3.670290290E-1
4.022706602E0,-1.303279996E-1,-3.419109881E-1,2.866699919E-2,3.670290290E-1
4.026644476E0,-1.315090060E-1,-2.733559906E-1,3.129999968E-4,3.033450416E-1
4.030582322E0,-1.315090060E-1,-2.733559906E-1,3.129999968E-4,3.033450416E-1
4.034520707E0,-1.315090060E-1,-2.733559906E-1,3.129999968E-4,3.033450416E-1
4.038458937E0,-1.315090060E-1,-2.733559906E-1,3.129999968E-4,3.033450416E-1
4.042397091E0,-1.315090060E-1,-2.733559906E-1,3.129999968E-4,3.033450416E-1
4.046335553E0,-1.315090060E-1,-2.733559906E-1,3.129999968E-4,3.033450416E-1
4.050274231E0,-1.596730053E-1,-3.411369920E-1,5.350400135E-2,3.804373721E-1
4.054212462E0,-1.596730053E-1,-3.411369920E-1,5.350400135E-2,3.804373721E-1
4.058150539E0,-1.596730053E-1,-3.411369920E-1,5.350400135E-2,3.804373721E-1
4.062088159E0,-1.596730053E-1,-3.411369920E-1,5.350400135E-2,3.804373721E-1
4.066026236E0,-1.596730053E-1,-3.411369920E-1,5.350400135E-2,3.804373721E-1
4.069964390E0,-2.010920048E-1,-3.001379967E-1,2.479900047E-2,3.621267759E-1
4.073902005E0,-2.010920048E-1,-3.001379967E-1,2.479900047E-2,3.621267759E-1
4.077839852E0,-2.010920048E-1,-3.001379967E-1,2.479900047E-2,3.621267759E-1
4.081777698E0,-2.010920048E-1,-3.001379967E-1,2.479900047E-2,3.621267759E-1
4.085715766E0,-2.010920048E-1,-3.001379967E-1,2.479900047E-2,3.621267759E-1
4.089653997E0,-2.418929935E-1,-3.139080107E-1,3.691200167E-2,3.980112503E-1
4.093592458E0,-2.418929935E-1,-3.139080107E-1,3.691200167E-2,3.980112503E-1
4.097530535E0,-2.418929935E-1,-3.139080107E-1,3.691200167E-2,3.980112503E-1
4.101468150E0,-2.418929935E-1,-3.139080107E-1,3.691200167E-2,3.980112503E-1
4.105405997E0,-2.418929935E-1,-3.139080107E-1,3.691200167E-2,3.980112503E-1
4.109344399E0,-2.003539950E-1,-3.551990092E-1,3.545200080E-2,4.093469235E-1
4.113282630E0,-2.003539950E-1,-3.551990092E-1,3.545200080E-2,4.093469235E-1
4.117221015E0,-2.003539950E-1,-3.551990092E-1,3.545200080E-2,4.093469235E-1
4.121159784E0,-2.003539950E-1,-3.551990092E-1,3.545200080E-2,4.093469235E-1
4.125098322E0,-2.003539950E-1,-3.551990092E-1,3.545200080E-2,4.093469235E-1
4.129036476E0,-1.584970057E-1,-3.557620049E-1,2.054600045E-2,3.900128755E-1
4.132974635E0,-1.584970057E-1,-3.557620049E-1,2.054600045E-2,3.900128755E-1
4.136913020E0,-1.584970057E-1,-3.557620049E-1,2.054600045E-2,3.900128755E-1
4.140851481E0,-1.584970057E-1,-3.557620049E-1,2.054600045E-2,3.900128755E-1
4.144789736E0,-1.584970057E-1,-3.557620049E-1,2.054600045E-2,3.900128755E-1
4.148727890E0,-7.587700337E-2,-3.562670052E-1,-7.818000391E-3,3.643413506E-1
4.152666274E0,-7.587700337E-2,-3.562670052E-1,-7.818000391E-3,3.643413506E-1
4.156604418E0,-7.587700337E-2,-3.562670052E-1,-7.818000391E-3,3.643413506E-1
4.160542264E0,-7.587700337E-2,-3.562670052E-1,-7.818000391E-3,3.643413506E-1
4.164480726E0,-7.587700337E-2,-3.562670052E-1,-7.818000391E-3,3.643413506E-1
4.168419490E0,-3.443900123E-2,-3.974690139E-1,1.848199964E-2,3.993860866E-1
4.172357644E0,-3.443900123E-2,-3.974690139E-1,1.848199964E-2,3.993860866E-1
4.176295798E0,-3.443900123E-2,-3.974690139E-1,1.848199964E-2,3.993860866E-1
4.180234332E0,-3.443900123E-2,-3.974690139E-1,1.848199964E-2,3.993860866E-1
4.184172179E0,-3.443900123E-2,-3.974690139E-1,1.848199964E-2,3.993860866E-1
4.188109717E0,-3.421799839E-2,-3.703899980E-1,8.584199846E-2,3.817439858E-1
4.192047856E0,-3.421799839E-2,-3.703899980E-1,8.584199846E-2,3.817439858E-1
4.195985702E0,-3.421799839E-2,-3.703899980E-1,8.584199846E-2,3.817439858E-1
4.199924087E0,-3.421799839E-2,-3.703899980E-1,8.584199846E-2,3.817439858E-1
4.203862001E0,-3.421799839E-2,-3.703899980E-1,8.584199846E-2,3.817439858E-1
4.207799770E0,-3.421799839E-2,-3.703899980E-1,8.584199846E-2,3.817439858E-1
4.211737616E0,-1.296299994E-1,-3.567860126E-1,8.523999900E-2,3.890579044E-1
4.215675466E0,-1.296299994E-1,-3.567860126E-1,8.523999900E-2,3.890579044E-1
4.219613620E0,-1.296299994E-1,-3.567860126E-1,8.523999900E-2,3.890579044E-1
4.223551851E0,-1.296299994E-1,-3.567860126E-1,8.523999900E-2,3.890579044E-1
4.227490236E0,-1.296299994E-1,-3.567860126E-1,8.523999900E-2,3.890579044E-1
4.231428389E0,-2.388309985E-1,-3.158589900E-1,7.107599825E-2,4.023169707E-1
4.235366543E0,-2.388309985E-1,-3.158589900E-1,7.107599825E-2,4.023169707E-1
4.239304410E0,-2.388309985E-1,-3.158589900E-1,7.107599825E-2,4.023169707E-1
4.243242256E0,-2.388309985E-1,-3.158589900E-1,7.107599825E-2,4.023169707E-1
4.247180102E0,-2.388309985E-1,-3.158589900E-1,7.107599825E-2,4.023169707E-1
4.251117948E0,-2.663039863E-1,-2.613070011E-1,-2.471799962E-2,3.739119435E-1
4.255056179E0,-2.663039863E-1,-2.613070011E-1,-2.471799962E-2,3.739119435E-1
4.258994333E0,-2.663039863E-1,-2.613070011E-1,-2.471799962E-2,3.739119435E-1
4.262932395E0,-2.663039863E-1,-2.613070011E-1,-2.471799962E-2,3.739119435E-1
4.266870010E0,-2.663039863E-1,-2.613070011E-1,-2.471799962E-2,3.739119435E-1
4.270807856E0,-2.528130114E-1,-2.748939991E-1,-1.142899971E-2,3.736465596E-1
4.274745386E0,-2.528130114E-1,-2.748939991E-1,-1.142899971E-2,3.736465596E-1
4.278683232E0,-2.528130114E-1,-2.748939991E-1,-1.142899971E-2,3.736465596E-1
4.282621386E0,-2.528130114E-1,-2.748939991E-1,-1.142899971E-2,3.736465596E-1
4.286559789E0,-2.528130114E-1,-2.748939991E-1,-1.142899971E-2,3.736465596E-1
4.290497943E0,-1.982830018E-1,-2.749260068E-1,-1.155600045E-2,3.391666245E-1
4.294435482E0,-1.982830018E-1,-2.749260068E-1,-1.155600045E-2,3.391666245E-1
4.298373092E0,-1.982830018E-1,-2.749260068E-1,-1.155600045E-2,3.391666245E-1
4.302311554E0,-1.982830018E-1,-2.749260068E-1,-1.155600045E-2,3.391666245E-1
4.306249938E0,-1.982830018E-1,-2.749260068E-1,-1.155600045E-2,3.391666245E-1
4.310188169E0,-1.572069973E-1,-3.158940077E-1,7.004299760E-2,3.597347434E-1
4.314126323E0,-1.572069973E-1,-3.158940077E-1,7.004299760E-2,3.597347434E-1
4.318064400E0,-1.572069973E-1,-3.158940077E-1,7.004299760E-2,3.597347434E-1
4.322002856E0,-1.572069973E-1,-3.158940077E-1,7.004299760E-2,3.597347434E-1
4.325941395E0,-1.572069973E-1,-3.158940077E-1,7.004299760E-2,3.597347434E-1
4.329879856E0,-1.569270045E-1,-3.160339892E-1,4.267700016E-2,3.554221341E-1
4.333818260E0,-1.569270045E-1,-3.160339892E-1,4.267700016E-2,3.554221341E-1
4.337756721E0,-1.569270045E-1,-3.160339892E-1,4.267700016E-2,3.554221341E-1
4.341695183E0,-1.569270045E-1,-3.160339892E-1,4.267700016E-2,3.554221341E-1
4.345633640E0,-1.569270045E-1,-3.160339892E-1,4.267700016E-2,3.554221341E-1
4.349572409E0,-1.702719927E-1,-3.161700070E-1,4.255999997E-2,3.616177241E-1
4.353510870E0,-1.702719927E-1,-3.161700070E-1,4.255999997E-2,3.616177241E-1
4.357449400E0,-1.702719927E-1,-3.161700070E-1,4.255999997E-2,3.616177241E-1
4.361387861E0,-1.702719927E-1,-3.161700070E-1,4.255999997E-2,3.616177241E-1
4.365326631E0,-1.702719927E-1,-3.161700070E-1,4.255999997E-2,3.616177241E-1
4.369264458E0,-1.699540019E-1,-3.435679972E-1,2.880500071E-2,3.843866017E-1
4.373202919E0,-1.699540019E-1,-3.435679972E-1,2.880500071E-2,3.843866017E-1
4.377141381E0,-1.699540019E-1,-3.435679972E-1,2.880500071E-2,3.843866017E-1
4.381079265E0,-1.699540019E-1,-3.435679972E-1,2.880500071E-2,3.843866017E-1
4.385017650E0,-1.699540019E-1,-3.435679972E-1,2.880500071E-2,3.843866017E-1
4.388955880E0,-1.556120068E-1,-3.166739941E-1,1.499800012E-2,3.531606648E-1
4.392895188E0,-1.556120068E-1,-3.166739941E-1,1.499800012E-2,3.531606648E-1
4.396833419E0,-1.556120068E-1,-3.166739941E-1,1.499800012E-2,3.531606648E-1
4.400771880E0,-1.556120068E-1,-3.166739941E-1,1.499800012E-2,3.531606648E-1
4.404709621E0,-1.556120068E-1,-3.166739941E-1,1.499800012E-2,3.531606648E-1
4.408647775E0,-1.541589946E-1,-3.173660040E-1,1.473100018E-2,3.531333721E-1
4.412586005E0,-1.541589946E-1,-3.173660040E-1,1.473100018E-2,3.531333721E-1
4.416524106E0,-1.541589946E-1,-3.173660040E-1,1.473100018E-2,3.531333721E-1
4.420462029E0,-1.541589946E-1,-3.173660040E-1,1.473100018E-2,3.531333721E-1
4.424400106E0,-1.541589946E-1,-3.173660040E-1,1.473100018E-2,3.531333721E-1
4.428337731E0,-1.248309985E-1,-3.728260100E-1,1.451900043E-2,3.934371783E-1
4.432275808E0,-1.248309985E-1,-3.728260100E-1,1.451900043E-2,3.934371783E-1
4.436214346E0,-1.248309985E-1,-3.728260100E-1,1.451900043E-2,3.934371783E-1
4.440152819E0,-1.248309985E-1,-3.728260100E-1,1.451900043E-2,3.934371783E-1
4.444090665E0,-1.248309985E-1,-3.728260100E-1,1.451900043E-2,3.934371783E-1
4.448028434E0,-1.225199997E-1,-3.194130063E-1,1.442399994E-2,3.424089232E-1
4.451966035E0,-1.225199997E-1,-3.194130063E-1,1.442399994E-2,3.424089232E-1
4.455903882E0,-1.225199997E-1,-3.194130063E-1,1.442399994E-2,3.424089232E-1
4.459842035E0,-1.225199997E-1,-3.194130063E-1,1.442399994E-2,3.424089232E-1
4.463779800E0,-1.225199997E-1,-3.194130063E-1,1.442399994E-2,3.424089232E-1
4.467717723E0,-1.612769961E-1,-3.203859925E-1,6.884600222E-2,3.652358494E-1
4.471655492E0,-1.612769961E-1,-3.203859925E-1,6.884600222E-2,3.652358494E-1
4.475593424E0,-1.612769961E-1,-3.203859925E-1,6.884600222E-2,3.652358494E-1
4.479531193E0,-1.612769961E-1,-3.203859925E-1,6.884600222E-2,3.652358494E-1
4.483468732E0,-1.612769961E-1,-3.203859925E-1,6.884600222E-2,3.652358494E-1
4.487406328E0,-1.612769961E-1,-3.203859925E-1,6.884600222E-2,3.652358494E-1
4.491344405E0,-2.275740057E-1,-3.076040149E-1,1.095829979E-1,3.980183306E-1
4.495282328E0,-2.275740057E-1,-3.076040149E-1,1.095829979E-1,3.980183306E-1
4.499220174E0,-2.275740057E-1,-3.076040149E-1,1.095829979E-1,3.980183306E-1
4.503157713E0,-2.275740057E-1,-3.076040149E-1,1.095829979E-1,3.980183306E-1
4.507095867E0,-2.275740057E-1,-3.076040149E-1,1.095829979E-1,3.980183306E-1
4.511034040E0,-2.260700017E-1,-3.219409883E-1,8.201900125E-2,4.018466899E-1
4.515003135E0,-2.260700017E-1,-3.219409883E-1,8.201900125E-2,4.018466899E-1
4.518972194E0,-2.260700017E-1,-3.219409883E-1,8.201900125E-2,4.018466899E-1
4.522848160E0,-2.260700017E-1,-3.219409883E-1,8.201900125E-2,4.018466899E-1
4.526785930E0,-2.260700017E-1,-3.219409883E-1,8.201900125E-2,4.018466899E-1
4.530723776E0,-1.839649975E-1,-3.089489937E-1,1.085340008E-1,3.755958338E-1
4.534661626E0,-1.839649975E-1,-3.089489937E-1,1.085340008E-1,3.755958338E-1
4.538599549E0,-1.839649975E-1,-3.089489937E-1,1.085340008E-1,3.755958338E-1
4.542537318E0,-1.839649975E-1,-3.089489937E-1,1.085340008E-1,3.755958338E-1
4.546474939E0,-1.839649975E-1,-3.089489937E-1,1.085340008E-1,3.755958338E-1
4.550412785E0,-1.147909984E-1,-3.503850102E-1,3.939099982E-2,3.708076045E-1
4.554350862E0,-1.147909984E-1,-3.503850102E-1,3.939099982E-2,3.708076045E-1
4.558288463E0,-1.147909984E-1,-3.503850102E-1,3.939099982E-2,3.708076045E-1
4.562226540E0,-1.147909984E-1,-3.503850102E-1,3.939099982E-2,3.708076045E-1
4.566164463E0,-1.147909984E-1,-3.503850102E-1,3.939099982E-2,3.708076045E-1
4.570102299E0,-1.139080003E-1,-3.236370087E-1,-1.618400030E-2,3.434790645E-1
4.574040146E0,-1.139080003E-1,-3.236370087E-1,-1.618400030E-2,3.434790645E-1
4.577978607E0,-1.139080003E-1,-3.236370087E-1,-1.618400030E-2,3.434790645E-1
4.581916770E0,-1.139080003E-1,-3.236370087E-1,-1.618400030E-2,3.434790645E-1
4.585855155E0,-1.139080003E-1,-3.236370087E-1,-1.618400030E-2,3.434790645E-1
4.589793385E0,-1.541340053E-1,-3.648779988E-1,3.716399893E-2,3.978371632E-1
4.593731568E0,-1.541340053E-1,-3.648779988E-1,3.716399893E-2,3.978371632E-1
4.597669722E0,-1.541340053E-1,-3.648779988E-1,3.716399893E-2,3.978371632E-1
4.601607799E0,-1.541340053E-1,-3.648779988E-1,3.716399893E-2,3.978371632E-1
4.605545944E0,-1.541340053E-1,-3.648779988E-1,3.716399893E-2,3.978371632E-1
4.609483482E0,-1.537699997E-1,-3.515410125E-1,1.037859991E-1,3.974894086E-1
4.613422252E0,-1.537699997E-1,-3.515410125E-1,1.037859991E-1,3.974894086E-1
4.617360390E0,-1.537699997E-1,-3.515410125E-1,1.037859991E-1,3.974894086E-1
4.621298929E0,-1.537699997E-1,-3.515410125E-1,1.037859991E-1,3.974894086E-1
4.625237390E0,-1.537699997E-1,-3.515410125E-1,1.037859991E-1,3.974894086E-1
4.629176078E0,-1.128320023E-1,-3.244979978E-1,7.450000197E-2,3.515398435E-1
4.633114001E0,-1.128320023E-1,-3.244979978E-1,7.450000197E-2,3.515398435E-1
4.637052385E0,-1.128320023E-1,-3.244979978E-1,7.450000197E-2,3.515398435E-1
4.640990554E0,-1.128320023E-1,-3.244979978E-1,7.450000197E-2,3.515398435E-1
4.644928477E0,-1.128320023E-1,-3.244979978E-1,7.450000197E-2,3.515398435E-1
4.648866554E0,-9.940800071E-2,-3.109660149E-1,3.138599917E-2,3.279739227E-1
4.652804491E0,-9.940800071E-2,-3.109660149E-1,3.138599917E-2,3.279739227E-1
4.656742568E0,-9.940800071E-2,-3.109660149E-1,3.138599917E-2,3.279739227E-1
4.660680722E0,-9.940800071E-2,-3.109660149E-1,3.138599917E-2,3.279739227E-1
4.664618948E0,-9.940800071E-2,-3.109660149E-1,3.138599917E-2,3.279739227E-1
4.668557102E0,-1.405420005E-1,-3.654989898E-1,1.550399978E-2,3.918953170E-1
4.672495486E0,-1.405420005E-1,-3.654989898E-1,1.550399978E-2,3.918953170E-1
4.676434054E0,-1.405420005E-1,-3.654989898E-1,1.550399978E-2,3.918953170E-1
4.680372208E0,-1.405420005E-1,-3.654989898E-1,1.550399978E-2,3.918953170E-1
4.684310054E0,-1.405420005E-1,-3.654989898E-1,1.550399978E-2,3.918953170E-1
4.688248227E0,-1.815630049E-1,-3.247269988E-1,-1.920000068E-4,3.720386880E-1
4.692186381E0,-1.815630049E-1,-3.247269988E-1,-1.920000068E-4,3.720386880E-1
4.696125073E0,-1.815630049E-1,-3.247269988E-1,-1.920000068E-4,3.720386880E-1
4.700063611E0,-1.815630049E-1,-3.247269988E-1,-1.920000068E-4,3.720386880E-1
4.704001765E0,-1.815630049E-1,-3.247269988E-1,-1.920000068E-4,3.720386880E-1
4.707940535E0,-1.952099949E-1,-2.839930058E-1,-1.958000008E-3,3.446197951E-1
4.711879241E0,-1.952099949E-1,-2.839930058E-1,-1.958000008E-3,3.446197951E-1
4.715817395E0,-1.952099949E-1,-2.839930058E-1,-1.958000008E-3,3.446197951E-1
4.719826702E0,-1.952099949E-1,-2.839930058E-1,-1.958000008E-3,3.446197951E-1
4.723693183E0,-1.952099949E-1,-2.839930058E-1,-1.958000008E-3,3.446197951E-1
4.727631568E0,-2.360640019E-1,-3.113470078E-1,5.108899996E-2,3.940472791E-1
4.731570029E0,-2.360640019E-1,-3.113470078E-1,5.108899996E-2,3.940472791E-1
4.735508250E0,-2.360640019E-1,-3.113470078E-1,5.108899996E-2,3.940472791E-1
4.739446096E0,-2.360640019E-1,-3.113470078E-1,5.108899996E-2,3.940472791E-1
4.743384250E0,-2.360640019E-1,-3.113470078E-1,5.108899996E-2,3.940472791E-1
4.747322640E0,-2.360640019E-1,-3.113470078E-1,5.108899996E-2,3.940472791E-1
4.751260793E0,-2.223629951E-1,-3.114779890E-1,6.349699944E-2,3.879377632E-1
4.755199563E0,-2.223629951E-1,-3.114779890E-1,6.349699944E-2,3.879377632E-1
4.759138381E0,-2.223629951E-1,-3.114779890E-1,6.349699944E-2,3.879377632E-1
4.763076535E0,-2.223629951E-1,-3.114779890E-1,6.349699944E-2,3.879377632E-1
4.767014919E0,-2.223629951E-1,-3.114779890E-1,6.349699944E-2,3.879377632E-1
4.770953458E0,-1.813270003E-1,-3.116419911E-1,2.156499960E-2,3.611997520E-1
4.774891919E0,-1.813270003E-1,-3.116419911E-1,2.156499960E-2,3.611997520E-1
4.778830381E0,-1.813270003E-1,-3.116419911E-1,2.156499960E-2,3.611997520E-1
4.782768245E0,-1.813270003E-1,-3.116419911E-1,2.156499960E-2,3.611997520E-1
4.786706399E0,-1.813270003E-1,-3.116419911E-1,2.156499960E-2,3.611997520E-1
4.790644860E0,-1.401090026E-1,-3.254899979E-1,7.129000034E-3,3.544363045E-1
4.794583573E0,-1.401090026E-1,-3.254899979E-1,7.129000034E-3,3.544363045E-1
4.798521111E0,-1.401090026E-1,-3.254899979E-1,7.129000034E-3,3.544363045E-1
4.802459342E0,-1.401090026E-1,-3.254899979E-1,7.129000034E-3,3.544363045E-1
4.806397818E0,-1.401090026E-1,-3.254899979E-1,7.129000034E-3,3.544363045E-1
4.810335971E0,-1.123260036E-1,-3.121620119E-1,6.535999943E-3,3.318206926E-1
4.814273741E0,-1.123260036E-1,-3.121620119E-1,6.535999943E-3,3.318206926E-1
4.818211558E0,-1.123260036E-1,-3.121620119E-1,6.535999943E-3,3.318206926E-1
4.822149789E0,-1.123260036E-1,-3.121620119E-1,6.535999943E-3,3.318206926E-1
4.826088173E0,-1.123260036E-1,-3.121620119E-1,6.535999943E-3,3.318206926E-1
4.830026034E0,-1.117940024E-1,-3.532960117E-1,1.977200061E-2,3.710888072E-1
4.833963881E0,-1.117940024E-1,-3.532960117E-1,1.977200061E-2,3.710888072E-1
4.837902034E0,-1.117940024E-1,-3.532960117E-1,1.977200061E-2,3.710888072E-1
4.841839866E0,-1.117940024E-1,-3.532960117E-1,1.977200061E-2,3.710888072E-1
4.845778327E0,-1.117940024E-1,-3.532960117E-1,1.977200061E-2,3.710888072E-1
4.849717096E0,-1.385550052E-1,-3.671450019E-1,6.052599847E-2,3.970596156E-1
4.853655650E0,-1.385550052E-1,-3.671450019E-1,6.052599847E-2,3.970596156E-1
4.857593496E0,-1.385550052E-1,-3.671450019E-1,6.052599847E-2,3.970596156E-1
4.861531342E0,-1.385550052E-1,-3.671450019E-1,6.052599847E-2,3.970596156E-1
4.865469794E0,-1.385550052E-1,-3.671450019E-1,6.052599847E-2,3.970596156E-1
4.869408563E0,-1.380580068E-1,-3.265109956E-1,6.055099890E-2,3.596329615E-1
4.873346948E0,-1.380580068E-1,-3.265109956E-1,6.055099890E-2,3.596329615E-1
4.877285447E0,-1.380580068E-1,-3.265109956E-1,6.055099890E-2,3.596329615E-1
4.881223832E0,-1.380580068E-1,-3.265109956E-1,6.055099890E-2,3.596329615E-1
4.885162293E0,-1.380580068E-1,-3.265109956E-1,6.055099890E-2,3.596329615E-1
4.889100120E0,-1.103779972E-1,-3.675779998E-1,6.047900021E-2,3.885287604E-1
4.893038582E0,-1.103779972E-1,-3.675779998E-1,6.047900021E-2,3.885287604E-1
4.896977351E0,-1.103779972E-1,-3.675779998E-1,6.047900021E-2,3.885287604E-1
4.900915818E0,-1.103779972E-1,-3.675779998E-1,6.047900021E-2,3.885287604E-1
4.904853664E0,-1.103779972E-1,-3.675779998E-1,6.047900021E-2,3.885287604E-1
4.908791895E0,-1.100329980E-1,-3.813729882E-1,4.666199908E-2,3.996623062E-1
4.912730630E0,-1.100329980E-1,-3.813729882E-1,4.666199908E-2,3.996623062E-1
4.916668784E0,-1.100329980E-1,-3.813729882E-1,4.666199908E-2,3.996623062E-1
4.920607168E0,-1.100329980E-1,-3.813729882E-1,4.666199908E-2,3.996623062E-1
4.924545611E0,-1.100329980E-1,-3.813729882E-1,4.666199908E-2,3.996623062E-1
4.928484072E0,-9.615900367E-2,-3.678919971E-1,4.635100067E-2,3.830659092E-1
4.932422611E0,-9.615900367E-2,-3.678919971E-1,4.635100067E-2,3.830659092E-1
4.936361337E0,-9.615900367E-2,-3.678919971E-1,4.635100067E-2,3.830659092E-1
4.940299568E0,-9.615900367E-2,-3.678919971E-1,4.635100067E-2,3.830659092E-1
4.944237953E0,-9.615900367E-2,-3.678919971E-1,4.635100067E-2,3.830659092E-1
4.948176216E0,-1.368349940E-1,-3.271380067E-1,1.881000027E-2,3.551012632E-1
4.952114370E0,-1.368349940E-1,-3.271380067E-1,1.881000027E-2,3.551012632E-1
4.956052832E0,-1.368349940E-1,-3.271380067E-1,1.881000027E-2,3.551012632E-1
4.959991279E0,-1.368349940E-1,-3.271380067E-1,1.881000027E-2,3.551012632E-1
4.963930049E0,-1.368349940E-1,-3.271380067E-1,1.881000027E-2,3.551012632E-1
4.967868741E0,-1.368349940E-1,-3.271380067E-1,1.881000027E-2,3.551012632E-1
4.971807476E0,-1.369960010E-1,-3.543289900E-1,4.885000177E-3,3.799220981E-1
4.975745938E0,-1.369960010E-1,-3.543289900E-1,4.885000177E-3,3.799220981E-1
4.979684399E0,-1.369960010E-1,-3.543289900E-1,4.885000177E-3,3.799220981E-1
4.983622269E0,-1.369960010E-1,-3.543289900E-1,4.885000177E-3,3.799220981E-1
4.987560731E0,-1.369960010E-1,-3.543289900E-1,4.885000177E-3,3.799220981E-1
4.991499192E0,-1.377329975E-1,-3.267709911E-1,-8.996999823E-3,3.547260989E-1
4.995437327E0,-1.377329975E-1,-3.267709911E-1,-8.996999823E-3,3.547260989E-1
4.999375404E0,-1.377329975E-1,-3.267709911E-1,-8.996999823E-3,3.547260989E-1
5.003314173E0,-1.377329975E-1,-3.267709911E-1,-8.996999823E-3,3.547260989E-1
5.007252962E0,-1.377329975E-1,-3.267709911E-1,-8.996999823E-3,3.547260989E-1
5.011191808E0,-1.390949935E-1,-3.534010053E-1,-9.167999960E-3,3.798996446E-1
5.015130500E0,-1.390949935E-1,-3.534010053E-1,-9.167999960E-3,3.798996446E-1
5.019069245E0,-1.390949935E-1,-3.534010053E-1,-9.167999960E-3,3.798996446E-1
5.023007169E0,-1.390949935E-1,-3.534010053E-1,-9.167999960E-3,3.798996446E-1
5.026945322E0,-1.390949935E-1,-3.534010053E-1,-9.167999960E-3,3.798996446E-1
5.030883476E0,-8.671399951E-2,-3.524380028E-1,-5.001600087E-2,3.663788529E-1
5.034821630E0,-8.671399951E-2,-3.524380028E-1,-5.001600087E-2,3.663788529E-1
5.038760092E0,-8.671399951E-2,-3.524380028E-1,-5.001600087E-2,3.663788529E-1
5.042698235E0,-8.671399951E-2,-3.524380028E-1,-5.001600087E-2,3.663788529E-1
5.046636697E0,-8.671399951E-2,-3.524380028E-1,-5.001600087E-2,3.663788529E-1
5.050574851E0,-1.435869932E-1,-3.240920007E-1,4.552000202E-3,3.545046830E-1
5.054513218E0,-1.435869932E-1,-3.240920007E-1,4.552000202E-3,3.545046830E-1
5.058451756E0,-1.435869932E-1,-3.240920007E-1,4.552000202E-3,3.545046830E-1
5.062390525E0,-1.435869932E-1,-3.240920007E-1,4.552000202E-3,3.545046830E-1
5.066329562E0,-1.435869932E-1,-3.240920007E-1,4.552000202E-3,3.545046830E-1
5.070268331E0,-1.458210051E-1,-3.094420135E-1,8.633899689E-2,3.528066718E-1
5.074206870E0,-1.458210051E-1,-3.094420135E-1,8.633899689E-2,3.528066718E-1
5.078145270E0,-1.458210051E-1,-3.094420135E-1,8.633899689E-2,3.528066718E-1
5.082083731E0,-1.458210051E-1,-3.094420135E-1,8.633899689E-2,3.528066718E-1
5.086022577E0,-1.071290001E-1,-3.084459901E-1,9.995599836E-2,3.414773098E-1
5.089961251E0,-1.071290001E-1,-3.084459901E-1,9.995599836E-2,3.414773098E-1
5.093899789E0,-1.071290001E-1,-3.084459901E-1,9.995599836E-2,3.414773098E-1
5.097838558E0,-1.071290001E-1,-3.084459901E-1,9.995599836E-2,3.414773098E-1
5.101777591E0,-1.071290001E-1,-3.084459901E-1,9.995599836E-2,3.414773098E-1
5.105716130E0,-1.071290001E-1,-3.084459901E-1,9.995599836E-2,3.414773098E-1
5.109654207E0,-1.228810027E-1,-3.483340144E-1,8.624000102E-2,3.793068207E-1
5.113593063E0,-1.228810027E-1,-3.483340144E-1,8.624000102E-2,3.793068207E-1
5.117532371E0,-1.228810027E-1,-3.483340144E-1,8.624000102E-2,3.793068207E-1
5.121470909E0,-1.228810027E-1,-3.483340144E-1,8.624000102E-2,3.793068207E-1
5.125409275E0,-1.520130038E-1,-3.747209907E-1,5.880000070E-2,4.086333494E-1
5.129348044E0,-1.520130038E-1,-3.747209907E-1,5.880000070E-2,4.086333494E-1
5.133286890E0,-1.520130038E-1,-3.747209907E-1,5.880000070E-2,4.086333494E-1
5.137225318E0,-1.520130038E-1,-3.747209907E-1,5.880000070E-2,4.086333494E-1
5.141163472E0,-1.520130038E-1,-3.747209907E-1,5.880000070E-2,4.086333494E-1
5.145101625E0,-1.520130038E-1,-3.747209907E-1,5.880000070E-2,4.086333494E-1
5.149040010E0,-1.943870038E-1,-3.467949927E-1,-3.666999936E-2,3.992464941E-1
5.152978856E0,-1.943870038E-1,-3.467949927E-1,-3.666999936E-2,3.992464941E-1
5.156917318E0,-1.943870038E-1,-3.467949927E-1,-3.666999936E-2,3.992464941E-1
5.160855467E0,-1.943870038E-1,-3.467949927E-1,-3.666999936E-2,3.992464941E-1
5.164793851E0,-1.943870038E-1,-3.467949927E-1,-3.666999936E-2,3.992464941E-1
5.168732082E0,-1.956059933E-1,-2.781279981E-1,-7.749799639E-2,3.487446450E-1
5.172670583E0,-1.956059933E-1,-2.781279981E-1,-7.749799639E-2,3.487446450E-1
5.176608352E0,-1.956059933E-1,-2.781279981E-1,-7.749799639E-2,3.487446450E-1
5.180546813E0,-1.956059933E-1,-2.781279981E-1,-7.749799639E-2,3.487446450E-1
5.184485048E0,-1.956059933E-1,-2.781279981E-1,-7.749799639E-2,3.487446450E-1
5.188423125E0,-1.694149971E-1,-3.593569994E-1,-3.650100157E-2,3.989626767E-1
5.192361356E0,-1.694149971E-1,-3.593569994E-1,-3.650100157E-2,3.989626767E-1
5.196299510E0,-1.694149971E-1,-3.593569994E-1,-3.650100157E-2,3.989626767E-1
5.200238202E0,-1.694149971E-1,-3.593569994E-1,-3.650100157E-2,3.989626767E-1
5.204176664E0,-1.694149971E-1,-3.593569994E-1,-3.650100157E-2,3.989626767E-1
5.208115438E0,-1.974429935E-1,-3.453600109E-1,-3.632799909E-2,3.994708954E-1
5.212053976E0,-1.974429935E-1,-3.453600109E-1,-3.632799909E-2,3.994708954E-1
5.215992361E0,-1.974429935E-1,-3.453600109E-1,-3.632799909E-2,3.994708954E-1
5.219930894E0,-1.974429935E-1,-3.453600109E-1,-3.632799909E-2,3.994708954E-1
5.223868971E0,-1.974429935E-1,-3.453600109E-1,-3.632799909E-2,3.994708954E-1
5.227806817E0,-1.974429935E-1,-3.453600109E-1,-3.632799909E-2,3.994708954E-1
5.231744971E0,-1.570470035E-1,-3.042620122E-1,1.845699921E-2,3.428991021E-1
5.235683125E0,-1.570470035E-1,-3.042620122E-1,1.845699921E-2,3.428991021E-1
5.239621048E0,-1.570470035E-1,-3.042620122E-1,1.845699921E-2,3.428991021E-1
5.243559222E0,-1.570470035E-1,-3.042620122E-1,1.845699921E-2,3.428991021E-1
5.247497068E0,-1.570470035E-1,-3.042620122E-1,1.845699921E-2,3.428991021E-1
5.251435453E0,-1.571550071E-1,-3.177970052E-1,5.978000164E-2,3.595362031E-1
5.255373986E0,-1.571550071E-1,-3.177970052E-1,5.978000164E-2,3.595362031E-1
5.259311832E0,-1.571550071E-1,-3.177970052E-1,5.978000164E-2,3.595362031E-1
5.263249602E0,-1.571550071E-1,-3.177970052E-1,5.978000164E-2,3.595362031E-1
5.267187530E0,-1.571550071E-1,-3.177970052E-1,5.978000164E-2,3.595362031E-1
5.271125376E0,-1.567839980E-1,-3.588060141E-1,8.730699867E-2,4.011801214E-1
5.275063145E0,-1.567839980E-1,-3.588060141E-1,8.730699867E-2,4.011801214E-1
5.279000995E0,-1.567839980E-1,-3.588060141E-1,8.730699867E-2,4.011801214E-1
5.282939226E0,-1.567839980E-1,-3.588060141E-1,8.730699867E-2,4.011801214E-1
5.286877611E0,-1.567839980E-1,-3.588060141E-1,8.730699867E-2,4.011801214E-1
5.290815457E0,-1.968989968E-1,-3.591459990E-1,4.649899900E-2,4.122101654E-1
5.294753611E0,-1.968989968E-1,-3.591459990E-1,4.649899900E-2,4.122101654E-1
5.298691842E0,-1.968989968E-1,-3.591459990E-1,4.649899900E-2,4.122101654E-1
5.302630005E0,-1.968989968E-1,-3.591459990E-1,4.649899900E-2,4.122101654E-1
5.306568467E0,-1.968989968E-1,-3.591459990E-1,4.649899900E-2,4.122101654E-1
5.310506313E0,-1.144979969E-1,-3.594529927E-1,1.932400092E-2,3.777428520E-1
5.314445082E0,-1.144979969E-1,-3.594529927E-1,1.932400092E-2,3.777428520E-1
5.318383159E0,-1.144979969E-1,-3.594529927E-1,1.932400092E-2,3.777428520E-1
5.322321313E0,-1.144979969E-1,-3.594529927E-1,1.932400092E-2,3.777428520E-1
5.326259467E0,-1.144979969E-1,-3.594529927E-1,1.932400092E-2,3.777428520E-1
5.330197327E0,-1.138800010E-1,-3.733350039E-1,5.993000232E-3,3.903634150E-1
5.334135558E0,-1.138800010E-1,-3.733350039E-1,5.993000232E-3,3.903634150E-1
5.338073712E0,-1.138800010E-1,-3.733350039E-1,5.993000232E-3,3.903634150E-1
5.342011794E0,-1.138800010E-1,-3.733350039E-1,5.993000232E-3,3.903634150E-1
5.345949717E0,-1.138800010E-1,-3.733350039E-1,5.993000232E-3,3.903634150E-1
5.349887794E0,-7.265199721E-2,-4.007019997E-1,2.018100023E-2,4.077348133E-1
5.353825395E0,-7.265199721E-2,-4.007019997E-1,2.018100023E-2,4.077348133E-1
5.357763472E0,-7.265199721E-2,-4.007019997E-1,2.018100023E-2,4.077348133E-1
5.361701626E0,-7.265199721E-2,-4.007019997E-1,2.018100023E-2,4.077348133E-1
5.365639789E0,-7.265199721E-2,-4.007019997E-1,2.018100023E-2,4.077348133E-1
5.369577943E0,-1.134120002E-1,-3.734450042E-1,2.099700086E-2,3.908507733E-1
5.373516097E0,-1.134120002E-1,-3.734450042E-1,2.099700086E-2,3.908507733E-1
5.377454284E0,-1.134120002E-1,-3.734450042E-1,2.099700086E-2,3.908507733E-1
5.381392823E0,-1.134120002E-1,-3.734450042E-1,2.099700086E-2,3.908507733E-1
5.385331823E0,-1.134120002E-1,-3.734450042E-1,2.099700086E-2,3.908507733E-1
5.389270674E0,-2.088489980E-1,-3.597150147E-1,2.185400017E-2,4.165217798E-1
5.393208751E0,-2.088489980E-1,-3.597150147E-1,2.185400017E-2,4.165217798E-1
5.397146905E0,-2.088489980E-1,-3.597150147E-1,2.185400017E-2,4.165217798E-1
5.401085059E0,-2.088489980E-1,-3.597150147E-1,2.185400017E-2,4.165217798E-1
5.405022905E0,-2.088489980E-1,-3.597150147E-1,2.185400017E-2,4.165217798E-1
5.408961136E0,-2.362809926E-1,-2.642259896E-1,6.346300244E-2,3.600994775E-1
5.412899813E0,-2.362809926E-1,-2.642259896E-1,6.346300244E-2,3.600994775E-1
5.416837967E0,-2.362809926E-1,-2.642259896E-1,6.346300244E-2,3.600994775E-1
5.420776428E0,-2.362809926E-1,-2.642259896E-1,6.346300244E-2,3.600994775E-1
5.424714953E0,-2.362809926E-1,-2.642259896E-1,6.346300244E-2,3.600994775E-1
5.428653337E0,-2.635749876E-1,-2.641510069E-1,6.409700215E-2,3.786237635E-1
5.432591491E0,-2.635749876E-1,-2.641510069E-1,6.409700215E-2,3.786237635E-1
5.436529953E0,-2.635749876E-1,-2.641510069E-1,6.409700215E-2,3.786237635E-1
5.440468491E0,-2.635749876E-1,-2.641510069E-1,6.409700215E-2,3.786237635E-1
5.444406953E0,-2.635749876E-1,-2.641510069E-1,6.409700215E-2,3.786237635E-1
5.448345322E0,-2.907130122E-1,-3.050189912E-1,2.375699952E-2,4.220367703E-1
5.452283861E0,-2.907130122E-1,-3.050189912E-1,2.375699952E-2,4.220367703E-1
5.456222322E0,-2.907130122E-1,-3.050189912E-1,2.375699952E-2,4.220367703E-1
5.460160694E0,-2.907130122E-1,-3.050189912E-1,2.375699952E-2,4.220367703E-1
5.464099156E0,-2.907130122E-1,-3.050189912E-1,2.375699952E-2,4.220367703E-1
5.468037310E0,-1.950380057E-1,-2.779040039E-1,1.050100010E-2,3.396773911E-1
5.471975521E0,-1.950380057E-1,-2.779040039E-1,1.050100010E-2,3.396773911E-1
5.475913983E0,-1.950380057E-1,-2.779040039E-1,1.050100010E-2,3.396773911E-1
5.479852675E0,-1.950380057E-1,-2.779040039E-1,1.050100010E-2,3.396773911E-1
5.483791122E0,-1.950380057E-1,-2.779040039E-1,1.050100010E-2,3.396773911E-1
5.487729276E0,-1.950380057E-1,-2.779040039E-1,1.050100010E-2,3.396773911E-1
5.491667199E0,-1.536650062E-1,-3.189949989E-1,1.056700014E-2,3.542349573E-1
5.495605276E0,-1.536650062E-1,-3.189949989E-1,1.056700014E-2,3.542349573E-1
5.499543506E0,-1.536650062E-1,-3.189949989E-1,1.056700014E-2,3.542349573E-1
5.503481891E0,-1.536650062E-1,-3.189949989E-1,1.056700014E-2,3.542349573E-1
5.507420424E0,-1.536650062E-1,-3.189949989E-1,1.056700014E-2,3.542349573E-1
5.511358578E0,-1.936639994E-1,-3.466329873E-1,1.056599990E-2,3.972050011E-1
5.515327834E0,-1.936639994E-1,-3.466329873E-1,1.056599990E-2,3.972050011E-1
5.519297045E0,-1.936639994E-1,-3.466329873E-1,1.056599990E-2,3.972050011E-1
5.523174199E0,-1.936639994E-1,-3.466329873E-1,1.056599990E-2,3.972050011E-1
5.527112353E0,-1.936639994E-1,-3.466329873E-1,1.056599990E-2,3.972050011E-1
5.531050286E0,-1.923830062E-1,-3.199799955E-1,2.420599945E-2,3.741448236E-1
5.534988440E0,-1.923830062E-1,-3.199799955E-1,2.420599945E-2,3.741448236E-1
5.538926593E0,-1.923830062E-1,-3.199799955E-1,2.420599945E-2,3.741448236E-1
5.542864779E0,-1.923830062E-1,-3.199799955E-1,2.420599945E-2,3.741448236E-1
5.546802856E0,-1.923830062E-1,-3.199799955E-1,2.420599945E-2,3.741448236E-1
5.550741318E0,-1.634290069E-1,-3.207649887E-1,2.423300035E-2,3.608136036E-1
5.554679430E0,-1.634290069E-1,-3.207649887E-1,2.423300035E-2,3.608136036E-1
5.558617353E0,-1.634290069E-1,-3.207649887E-1,2.423300035E-2,3.608136036E-1
5.562555430E0,-1.634290069E-1,-3.207649887E-1,2.423300035E-2,3.608136036E-1
5.566493549E0,-1.634290069E-1,-3.207649887E-1,2.423300035E-2,3.608136036E-1
5.570431473E0,-1.069820002E-1,-3.625369966E-1,5.137399957E-2,3.814675741E-1
5.574369626E0,-1.069820002E-1,-3.625369966E-1,5.137399957E-2,3.814675741E-1
5.578308025E0,-1.069820002E-1,-3.625369966E-1,5.137399957E-2,3.814675741E-1
5.582246563E0,-1.069820002E-1,-3.625369966E-1,5.137399957E-2,3.814675741E-1
5.586184410E0,-1.069820002E-1,-3.625369966E-1,5.137399957E-2,3.814675741E-1
5.590122583E0,-1.047729999E-1,-3.635709882E-1,5.113400146E-2,3.818061433E-1
5.594060353E0,-1.047729999E-1,-3.635709882E-1,5.113400146E-2,3.818061433E-1
5.597998507E0,-1.047729999E-1,-3.635709882E-1,5.113400146E-2,3.818061433E-1
5.601936996E0,-1.047729999E-1,-3.635709882E-1,5.113400146E-2,3.818061433E-1
5.605875458E0,-1.047729999E-1,-3.635709882E-1,5.113400146E-2,3.818061433E-1
5.609813996E0,-1.160579994E-1,-3.238140047E-1,6.433399767E-2,3.499483278E-1
5.613751765E0,-1.160579994E-1,-3.238140047E-1,6.433399767E-2,3.499483278E-1
5.617689688E0,-1.160579994E-1,-3.238140047E-1,6.433399767E-2,3.499483278E-1
5.621627535E0,-1.160579994E-1,-3.238140047E-1,6.433399767E-2,3.499483278E-1
5.625565675E0,-1.160579994E-1,-3.238140047E-1,6.433399767E-2,3.499483278E-1
5.629503828E0,-8.679399639E-2,-3.247889876E-1,5.011500046E-2,3.399008643E-1
5.633442290E0,-8.679399639E-2,-3.247889876E-1,5.011500046E-2,3.399008643E-1
5.637380059E0,-8.679399639E-2,-3.247889876E-1,5.011500046E-2,3.399008643E-1
5.641317905E0,-8.679399639E-2,-3.247889876E-1,5.011500046E-2,3.399008643E-1
5.645255444E0,-8.679399639E-2,-3.247889876E-1,5.011500046E-2,3.399008643E-1
5.649193367E0,-1.397259980E-1,-3.664059937E-1,2.229299955E-2,3.927768891E-1
5.653131828E0,-1.397259980E-1,-3.664059937E-1,2.229299955E-2,3.927768891E-1
5.657069905E0,-1.397259980E-1,-3.664059937E-1,2.229299955E-2,3.927768891E-1
5.661008078E0,-1.397259980E-1,-3.664059937E-1,2.229299955E-2,3.927768891E-1
5.664945694E0,-1.397259980E-1,-3.664059937E-1,2.229299955E-2,3.927768891E-1
5.668883771E0,-1.521340013E-1,-3.533779979E-1,2.181999944E-2,3.853529241E-1
5.672821410E0,-1.521340013E-1,-3.533779979E-1,2.181999944E-2,3.853529241E-1
5.676759179E0,-1.521340013E-1,-3.533779979E-1,2.181999944E-2,3.853529241E-1
5.680696718E0,-1.521340013E-1,-3.533779979E-1,2.181999944E-2,3.853529241E-1
5.684633732E0,-1.521340013E-1,-3.533779979E-1,2.181999944E-2,3.853529241E-1
5.688571578E0,-1.514199972E-1,-3.264920115E-1,7.822000422E-3,3.599808785E-1
5.692509424E0,-1.514199972E-1,-3.264920115E-1,7.822000422E-3,3.599808785E-1
5.696447275E0,-1.514199972E-1,-3.264920115E-1,7.822000422E-3,3.599808785E-1
5.700385044E0,-1.514199972E-1,-3.264920115E-1,7.822000422E-3,3.599808785E-1
5.704322891E0,-1.514199972E-1,-3.264920115E-1,7.822000422E-3,3.599808785E-1
5.708260790E0,-1.514820009E-1,-3.128669858E-1,-6.091000047E-3,3.476631239E-1
5.712198867E0,-1.514820009E-1,-3.128669858E-1,-6.091000047E-3,3.476631239E-1
5.716136809E0,-1.514820009E-1,-3.128669858E-1,-6.091000047E-3,3.476631239E-1
5.720074655E0,-1.514820009E-1,-3.128669858E-1,-6.091000047E-3,3.476631239E-1
5.724012424E0,-1.514820009E-1,-3.128669858E-1,-6.091000047E-3,3.476631239E-1
5.727950270E0,-1.514820009E-1,-3.128669858E-1,-6.091000047E-3,3.476631239E-1
5.731887550E0,-1.521639973E-1,-3.670580089E-1,4.810399935E-2,4.002492458E-1
5.735825319E0,-1.521639973E-1,-3.670580089E-1,4.810399935E-2,4.002492458E-1
5.739762627E0,-1.521639973E-1,-3.670580089E-1,4.810399935E-2,4.002492458E-1
5.743700395E0,-1.521639973E-1,-3.670580089E-1,4.810399935E-2,4.002492458E-1
5.747638318E0,-1.521639973E-1,-3.670580089E-1,4.810399935E-2,4.002492458E-1
5.751576395E0,-1.533460021E-1,-3.256810009E-1,4.778499901E-2,3.631342959E-1
5.755514627E0,-1.533460021E-1,-3.256810009E-1,4.778499901E-2,3.631342959E-1
5.759452473E0,-1.533460021E-1,-3.256810009E-1,4.778499901E-2,3.631342959E-1
5.763390550E0,-1.533460021E-1,-3.256810009E-1,4.778499901E-2,3.631342959E-1
5.767328438E0,-1.533460021E-1,-3.256810009E-1,4.778499901E-2,3.631342959E-1
5.771266284E0,-1.413259953E-1,-3.522120118E-1,2.021699958E-2,3.800461357E-1
5.775204053E0,-1.413259953E-1,-3.522120118E-1,2.021699958E-2,3.800461357E-1
5.779141982E0,-1.413259953E-1,-3.522120118E-1,2.021699958E-2,3.800461357E-1
5.783079751E0,-1.413259953E-1,-3.522120118E-1,2.021699958E-2,3.800461357E-1
5.787017366E0,-1.413259953E-1,-3.522120118E-1,2.021699958E-2,3.800461357E-1
5.790954895E0,-1.159740016E-1,-3.241289854E-1,-3.455400094E-2,3.459820042E-1
5.794893049E0,-1.159740016E-1,-3.241289854E-1,-3.455400094E-2,3.459820042E-1
5.798831125E0,-1.159740016E-1,-3.241289854E-1,-3.455400094E-2,3.459820042E-1
5.802769049E0,-1.159740016E-1,-3.241289854E-1,-3.455400094E-2,3.459820042E-1
5.806706587E0,-1.159740016E-1,-3.241289854E-1,-3.455400094E-2,3.459820042E-1
5.810644356E0,-1.041560024E-1,-3.233180046E-1,-7.532000076E-3,3.397642359E-1
5.814581967E0,-1.041560024E-1,-3.233180046E-1,-7.532000076E-3,3.397642359E-1
5.818520351E0,-1.041560024E-1,-3.233180046E-1,-7.532000076E-3,3.397642359E-1
5.822457967E0,-1.041560024E-1,-3.233180046E-1,-7.532000076E-3,3.397642359E-1
5.826396351E0,-1.041560024E-1,-3.233180046E-1,-7.532000076E-3,3.397642359E-1
5.830334274E0,-9.222400188E-2,-3.770270050E-1,6.039000116E-3,3.881895137E-1
5.834272428E0,-9.222400188E-2,-3.770270050E-1,6.039000116E-3,3.881895137E-1
5.838211121E0,-9.222400188E-2,-3.770270050E-1,6.039000116E-3,3.881895137E-1
5.842149351E0,-9.222400188E-2,-3.770270050E-1,6.039000116E-3,3.881895137E-1
5.846087428E0,-9.222400188E-2,-3.770270050E-1,6.039000116E-3,3.881895137E-1
5.850025255E0,-6.683599949E-2,-3.625459969E-1,6.064800173E-2,3.736105336E-1
5.853963179E0,-6.683599949E-2,-3.625459969E-1,6.064800173E-2,3.736105336E-1
5.857901871E0,-6.683599949E-2,-3.625459969E-1,6.064800173E-2,3.736105336E-1
5.861840001E0,-6.683599949E-2,-3.625459969E-1,6.064800173E-2,3.736105336E-1
5.865778539E0,-6.683599949E-2,-3.625459969E-1,6.064800173E-2,3.736105336E-1
5.869716616E0,-6.878700107E-2,-3.616270125E-1,4.730499908E-2,3.711381288E-1
5.873654731E0,-6.878700107E-2,-3.616270125E-1,4.730499908E-2,3.711381288E-1
5.877592577E0,-6.878700107E-2,-3.616270125E-1,4.730499908E-2,3.711381288E-1
5.881530423E0,-6.878700107E-2,-3.616270125E-1,4.730499908E-2,3.711381288E-1
5.885468264E0,-6.878700107E-2,-3.616270125E-1,4.730499908E-2,3.711381288E-1
5.889405572E0,-9.814099967E-2,-3.742620051E-1,1.019639969E-1,4.001254315E-1
5.893343418E0,-9.814099967E-2,-3.742620051E-1,1.019639969E-1,4.001254315E-1
5.897281217E0,-9.814099967E-2,-3.742620051E-1,1.019639969E-1,4.001254315E-1
5.901219063E0,-9.814099967E-2,-3.742620051E-1,1.019639969E-1,4.001254315E-1
5.905156678E0,-9.814099967E-2,-3.742620051E-1,1.019639969E-1,4.001254315E-1
5.909094212E0,-1.547629982E-1,-3.460339904E-1,6.114200130E-2,3.839654313E-1
5.913031981E0,-1.547629982E-1,-3.460339904E-1,6.114200130E-2,3.839654313E-1
5.916970232E0,-1.547629982E-1,-3.460339904E-1,6.114200130E-2,3.839654313E-1
5.920908924E0,-1.547629982E-1,-3.460339904E-1,6.114200130E-2,3.839654313E-1
5.924847155E0,-1.547629982E-1,-3.460339904E-1,6.114200130E-2,3.839654313E-1
5.928785616E0,-1.568540037E-1,-3.178409934E-1,1.018519998E-1,3.687816500E-1
5.932724097E0,-1.568540037E-1,-3.178409934E-1,1.018519998E-1,3.687816500E-1
5.936662481E0,-1.568540037E-1,-3.178409934E-1,1.018519998E-1,3.687816500E-1
5.940600328E0,-1.568540037E-1,-3.178409934E-1,1.018519998E-1,3.687816500E-1
5.944538207E0,-1.568540037E-1,-3.178409934E-1,1.018519998E-1,3.687816500E-1
5.948476438E0,-1.181199998E-1,-3.168779910E-1,6.078400090E-2,3.435966971E-1
5.952414899E0,-1.181199998E-1,-3.168779910E-1,6.078400090E-2,3.435966971E-1
5.956352785E0,-1.181199998E-1,-3.168779910E-1,6.078400090E-2,3.435966971E-1
5.960290554E0,-1.181199998E-1,-3.168779910E-1,6.078400090E-2,3.435966971E-1
5.964229093E0,-1.181199998E-1,-3.168779910E-1,6.078400090E-2,3.435966971E-1
5.968167223E0,-7.961300015E-2,-3.566859961E-1,6.035599858E-2,3.704132505E-1
5.972105069E0,-7.961300015E-2,-3.566859961E-1,6.035599858E-2,3.704132505E-1
5.976042838E0,-7.961300015E-2,-3.566859961E-1,6.035599858E-2,3.704132505E-1
5.979980987E0,-7.961300015E-2,-3.566859961E-1,6.035599858E-2,3.704132505E-1
5.983918910E0,-7.961300015E-2,-3.566859961E-1,6.035599858E-2,3.704132505E-1
5.987856756E0,-7.961300015E-2,-3.566859961E-1,6.035599858E-2,3.704132505E-1
5.991794847E0,-1.095679998E-1,-3.963519931E-1,1.874300092E-2,4.116446879E-1
5.995732386E0,-1.095679998E-1,-3.963519931E-1,1.874300092E-2,4.116446879E-1
5.999670001E0,-1.095679998E-1,-3.963519931E-1,1.874300092E-2,4.116446879E-1
6.003607871E0,-1.095679998E-1,-3.963519931E-1,1.874300092E-2,4.116446879E-1
6.007545948E0,-1.095679998E-1,-3.963519931E-1,1.874300092E-2,4.116446879E-1
6.011483794E0,-1.397580057E-1,-3.950709999E-1,1.770799980E-2,4.194364891E-1
6.015421722E0,-1.397580057E-1,-3.950709999E-1,1.770799980E-2,4.194364891E-1
6.019359569E0,-1.397580057E-1,-3.950709999E-1,1.770799980E-2,4.194364891E-1
6.023297415E0,-1.397580057E-1,-3.950709999E-1,1.770799980E-2,4.194364891E-1
6.027235785E0,-1.397580057E-1,-3.950709999E-1,1.770799980E-2,4.194364891E-1
6.031173939E0,-1.698600054E-1,-3.121339977E-1,2.697000047E-3,3.553692836E-1
6.035111785E0,-1.698600054E-1,-3.121339977E-1,2.697000047E-3,3.553692836E-1
6.039050030E0,-1.698600054E-1,-3.121339977E-1,2.697000047E-3,3.553692836E-1
6.042987876E0,-1.698600054E-1,-3.121339977E-1,2.697000047E-3,3.553692836E-1
6.046926338E0,-1.698600054E-1,-3.121339977E-1,2.697000047E-3,3.553692836E-1
6.050864506E0,-2.132759988E-1,-3.383040130E-1,-1.237099990E-2,4.001116076E-1
6.054802044E0,-2.132759988E-1,-3.383040130E-1,-1.237099990E-2,4.001116076E-1
6.058739890E0,-2.132759988E-1,-3.383040130E-1,-1.237099990E-2,4.001116076E-1
6.062677680E0,-2.132759988E-1,-3.383040130E-1,-1.237099990E-2,4.001116076E-1
6.066615295E0,-2.132759988E-1,-3.383040130E-1,-1.237099990E-2,4.001116076E-1
6.070553372E0,-1.882759929E-1,-3.373720050E-1,-1.349999948E-4,3.863518312E-1
6.074491852E0,-1.882759929E-1,-3.373720050E-1,-1.349999948E-4,3.863518312E-1
6.078430006E0,-1.882759929E-1,-3.373720050E-1,-1.349999948E-4,3.863518312E-1
6.082369083E0,-1.882759929E-1,-3.373720050E-1,-1.349999948E-4,3.863518312E-1
6.086306900E0,-1.882759929E-1,-3.373720050E-1,-1.349999948E-4,3.863518312E-1
6.090244439E0,-1.357800066E-1,-2.956779897E-1,1.233800035E-2,3.255977734E-1
6.094182362E0,-1.357800066E-1,-2.956779897E-1,1.233800035E-2,3.255977734E-1
6.098120713E0,-1.357800066E-1,-2.956779897E-1,1.233800035E-2,3.255977734E-1
6.102058636E0,-1.357800066E-1,-2.956779897E-1,1.233800035E-2,3.255977734E-1
6.105997020E0,-1.373440027E-1,-2.950400114E-1,9.294100106E-2,3.384523794E-1
6.109935554E0,-1.373440027E-1,-2.950400114E-1,9.294100106E-2,3.384523794E-1
6.113873631E0,-1.373440027E-1,-2.950400114E-1,9.294100106E-2,3.384523794E-1
6.117811872E0,-1.373440027E-1,-2.950400114E-1,9.294100106E-2,3.384523794E-1
6.121750025E0,-1.373440027E-1,-2.950400114E-1,9.294100106E-2,3.384523794E-1
6.125687872E0,-1.373440027E-1,-2.950400114E-1,9.294100106E-2,3.384523794E-1
6.129625670E0,-1.791680008E-1,-3.491579890E-1,1.054740027E-1,4.063708147E-1
6.133563516E0,-1.791680008E-1,-3.491579890E-1,1.054740027E-1,4.063708147E-1
6.137500747E0,-1.791680008E-1,-3.491579890E-1,1.054740027E-1,4.063708147E-1
6.141438799E0,-1.791680008E-1,-3.491579890E-1,1.054740027E-1,4.063708147E-1
6.145377260E0,-1.791680008E-1,-3.491579890E-1,1.054740027E-1,4.063708147E-1
6.149315491E0,-1.524229944E-1,-3.626430035E-1,1.450890005E-1,4.192773965E-1
6.153253019E0,-1.524229944E-1,-3.626430035E-1,1.450890005E-1,4.192773965E-1
6.157191096E0,-1.524229944E-1,-3.626430035E-1,1.450890005E-1,4.192773965E-1
6.161129327E0,-1.524229944E-1,-3.626430035E-1,1.450890005E-1,4.192773965E-1
6.165067419E0,-1.524229944E-1,-3.626430035E-1,1.450890005E-1,4.192773965E-1
6.169004957E0,-1.527100056E-1,-3.353750110E-1,1.028359979E-1,3.825859201E-1
6.172942804E0,-1.527100056E-1,-3.353750110E-1,1.028359979E-1,3.825859201E-1
6.176880958E0,-1.527100056E-1,-3.353750110E-1,1.028359979E-1,3.825859201E-1
6.180819111E0,-1.527100056E-1,-3.353750110E-1,1.028359979E-1,3.825859201E-1
6.184756727E0,-1.527100056E-1,-3.353750110E-1,1.028359979E-1,3.825859201E-1
6.188694784E0,-1.528300047E-1,-3.354359865E-1,7.406999916E-2,3.759796220E-1
6.192632630E0,-1.528300047E-1,-3.354359865E-1,7.406999916E-2,3.759796220E-1
6.196570245E0,-1.528300047E-1,-3.354359865E-1,7.406999916E-2,3.759796220E-1
6.200507091E0,-1.528300047E-1,-3.354359865E-1,7.406999916E-2,3.759796220E-1
6.204444399E0,-1.528300047E-1,-3.354359865E-1,7.406999916E-2,3.759796220E-1
6.208381938E0,-1.390849948E-1,-3.356089890E-1,3.167799860E-2,3.646663199E-1
