"Time (s)","Linear Acceleration x (m/s^2)","Linear Acceleration y (m/s^2)","Linear Acceleration z (m/s^2)","Absolute acceleration (m/s^2)"
2.788347200E-2,-7.902599871E-2,-9.964999743E-3,3.278699890E-2,8.613592159E-2
3.182816400E-2,-7.902599871E-2,-9.964999743E-3,3.278699890E-2,8.613592159E-2
3.577277900E-2,-7.902599871E-2,-9.964999743E-3,3.278699890E-2,8.613592159E-2
3.971793800E-2,1.524200011E-2,5.478399992E-2,-2.657040060E-1,2.717208568E-1
4.366232300E-2,1.524200011E-2,5.478399992E-2,-2.657040060E-1,2.717208568E-1
4.760655400E-2,1.524200011E-2,5.478399992E-2,-2.657040060E-1,2.717208568E-1
5.155063100E-2,1.524200011E-2,5.478399992E-2,-2.657040060E-1,2.717208568E-1
5.549524600E-2,1.524200011E-2,5.478399992E-2,-2.657040060E-1,2.717208568E-1
5.944009200E-2,1.772149950E-1,-7.100299746E-2,-8.757200092E-2,2.100367479E-1
6.338469200E-2,1.772149950E-1,-7.100299746E-2,-8.757200092E-2,2.100367479E-1
6.732907700E-2,1.772149950E-1,-7.100299746E-2,-8.757200092E-2,2.100367479E-1
7.127361600E-2,1.772149950E-1,-7.100299746E-2,-8.757200092E-2,2.100367479E-1
7.521830800E-2,1.772149950E-1,-7.100299746E-2,-8.757200092E-2,2.100367479E-1
7.916284600E-2,1.478929967E-1,-1.145690009E-1,-1.275970042E-1,2.264495306E-1
8.310753900E-2,1.478929967E-1,-1.145690009E-1,-1.275970042E-1,2.264495306E-1
8.705214000E-2,1.478929967E-1,-1.145690009E-1,-1.275970042E-1,2.264495306E-1
9.099706300E-2,1.478929967E-1,-1.145690009E-1,-1.275970042E-1,2.264495306E-1
9.494190900E-2,1.478929967E-1,-1.145690009E-1,-1.275970042E-1,2.264495306E-1
9.888681700E-2,2.400690019E-1,-1.439079940E-1,-1.815550029E-1,3.336238234E-1
1.028315100E-1,2.400690019E-1,-1.439079940E-1,-1.815550029E-1,3.336238234E-1
1.067763560E-1,2.400690019E-1,-1.439079940E-1,-1.815550029E-1,3.336238234E-1
1.107210640E-1,2.400690019E-1,-1.439079940E-1,-1.815550029E-1,3.336238234E-1
1.146659100E-1,2.400690019E-1,-1.439079940E-1,-1.815550029E-1,3.336238234E-1
1.186099100E-1,2.625469863E-1,-1.725260019E-1,-2.359070033E-1,3.928718055E-1
1.225539050E-1,2.625469863E-1,-1.725260019E-1,-2.359070033E-1,3.928718055E-1
1.264979050E-1,2.625469863E-1,-1.725260019E-1,-2.359070033E-1,3.928718055E-1
1.304422130E-1,2.625469863E-1,-1.725260019E-1,-2.359070033E-1,3.928718055E-1
1.343866320E-1,2.625469863E-1,-1.725260019E-1,-2.359070033E-1,3.928718055E-1
1.383303240E-1,8.004999906E-2,-6.450100243E-2,-1.815160066E-1,2.086059498E-1
1.422743240E-1,8.004999906E-2,-6.450100243E-2,-1.815160066E-1,2.086059498E-1
1.462182710E-1,8.004999906E-2,-6.450100243E-2,-1.815160066E-1,2.086059498E-1
1.501622710E-1,8.004999906E-2,-6.450100243E-2,-1.815160066E-1,2.086059498E-1
1.541059630E-1,8.004999906E-2,-6.450100243E-2,-1.815160066E-1,2.086059498E-1
1.580500590E-1,6.131900102E-2,-2.425999939E-2,-1.272169948E-1,1.432924674E-1
1.619937520E-1,6.131900102E-2,-2.425999939E-2,-1.272169948E-1,1.432924674E-1
1.659376750E-1,6.131900102E-2,-2.425999939E-2,-1.272169948E-1,1.432924674E-1
1.698810590E-1,6.131900102E-2,-2.425999939E-2,-1.272169948E-1,1.432924674E-1
1.738248290E-1,6.131900102E-2,-2.425999939E-2,-1.272169948E-1,1.432924674E-1
1.777685210E-1,-7.898300141E-2,1.646699943E-2,-5.939900130E-2,1.001884122E-1
1.817125250E-1,-7.898300141E-2,1.646699943E-2,-5.939900130E-2,1.001884122E-1
1.856562170E-1,-7.898300141E-2,1.646699943E-2,-5.939900130E-2,1.001884122E-1
1.896002170E-1,-7.898300141E-2,1.646699943E-2,-5.939900130E-2,1.001884122E-1
1.935442320E-1,-7.898300141E-2,1.646699943E-2,-5.939900130E-2,1.001884122E-1
1.974882320E-1,-6.871200353E-2,3.039100021E-2,-1.823669970E-1,1.972376078E-1
2.014324630E-1,-6.871200353E-2,3.039100021E-2,-1.823669970E-1,1.972376078E-1
2.053765450E-1,-6.871200353E-2,3.039100021E-2,-1.823669970E-1,1.972376078E-1
2.093208530E-1,-6.871200353E-2,3.039100021E-2,-1.823669970E-1,1.972376078E-1
2.132656990E-1,-6.871200353E-2,3.039100021E-2,-1.823669970E-1,1.972376078E-1
2.172100260E-1,-6.871200353E-2,3.039100021E-2,-1.823669970E-1,1.972376078E-1
2.211543330E-1,-7.162000239E-2,1.695599966E-2,-1.826730072E-1,1.969425252E-1
2.250987180E-1,-7.162000239E-2,1.695599966E-2,-1.826730072E-1,1.969425252E-1
2.290436360E-1,-7.162000239E-2,1.695599966E-2,-1.826730072E-1,1.969425252E-1
2.329878670E-1,-7.162000239E-2,1.695599966E-2,-1.826730072E-1,1.969425252E-1
2.369327900E-1,-7.162000239E-2,1.695599966E-2,-1.826730072E-1,1.969425252E-1
2.408777320E-1,6.190500036E-2,-5.117300153E-2,-1.556430012E-1,1.751446516E-1
2.448224240E-1,6.190500036E-2,-5.117300153E-2,-1.556430012E-1,1.751446516E-1
2.487669630E-1,6.190500036E-2,-5.117300153E-2,-1.556430012E-1,1.751446516E-1
2.527113420E-1,6.190500036E-2,-5.117300153E-2,-1.556430012E-1,1.751446516E-1
2.566556500E-1,6.190500036E-2,-5.117300153E-2,-1.556430012E-1,1.751446516E-1
2.606002660E-1,1.001439989E-1,-7.862299681E-2,-2.375030071E-1,2.694774100E-1
2.645451120E-1,1.001439989E-1,-7.862299681E-2,-2.375030071E-1,2.694774100E-1
2.684891890E-1,1.001439989E-1,-7.862299681E-2,-2.375030071E-1,2.694774100E-1
2.724337270E-1,1.001439989E-1,-7.862299681E-2,-2.375030071E-1,2.694774100E-1
2.763778090E-1,1.001439989E-1,-7.862299681E-2,-2.375030071E-1,2.694774100E-1
2.803223470E-1,1.519020051E-1,-1.604769975E-1,-1.831990033E-1,2.870347726E-1
2.842663470E-1,1.519020051E-1,-1.604769975E-1,-1.831990033E-1,2.870347726E-1
2.882106690E-1,1.519020051E-1,-1.604769975E-1,-1.831990033E-1,2.870347726E-1
2.921547460E-1,1.519020051E-1,-1.604769975E-1,-1.831990033E-1,2.870347726E-1
2.960989770E-1,1.519020051E-1,-1.604769975E-1,-1.831990033E-1,2.870347726E-1
3.000432700E-1,6.746999919E-2,-7.877899706E-2,-1.016929969E-1,1.452576910E-1
3.039876540E-1,6.746999919E-2,-7.877899706E-2,-1.016929969E-1,1.452576910E-1
3.079319620E-1,6.746999919E-2,-7.877899706E-2,-1.016929969E-1,1.452576910E-1
3.118762700E-1,6.746999919E-2,-7.877899706E-2,-1.016929969E-1,1.452576910E-1
3.158205770E-1,6.746999919E-2,-7.877899706E-2,-1.016929969E-1,1.452576910E-1
3.197651160E-1,-9.848699719E-2,3.006099910E-2,-1.018590033E-1,1.448399421E-1
3.237093950E-1,-9.848699719E-2,3.006099910E-2,-1.018590033E-1,1.448399421E-1
3.276537790E-1,-9.848699719E-2,3.006099910E-2,-1.018590033E-1,1.448399421E-1
3.315980100E-1,-9.848699719E-2,3.006099910E-2,-1.018590033E-1,1.448399421E-1
3.355421010E-1,-9.848699719E-2,3.006099910E-2,-1.018590033E-1,1.448399421E-1
3.394867160E-1,8.352999575E-3,-1.064170003E-1,-1.836560071E-1,2.124238204E-1
3.434309470E-1,8.352999575E-3,-1.064170003E-1,-1.836560071E-1,2.124238204E-1
3.473749280E-1,8.352999575E-3,-1.064170003E-1,-1.836560071E-1,2.124238204E-1
3.513190050E-1,8.352999575E-3,-1.064170003E-1,-1.836560071E-1,2.124238204E-1
3.552632360E-1,8.352999575E-3,-1.064170003E-1,-1.836560071E-1,2.124238204E-1
3.592075290E-1,1.563390046E-1,-1.610040069E-1,6.914000027E-3,2.245261187E-1
3.631509140E-1,1.563390046E-1,-1.610040069E-1,6.914000027E-3,2.245261187E-1
3.670946830E-1,1.563390046E-1,-1.610040069E-1,6.914000027E-3,2.245261187E-1
3.710386780E-1,1.563390046E-1,-1.610040069E-1,6.914000027E-3,2.245261187E-1
3.749823710E-1,1.563390046E-1,-1.610040069E-1,6.914000027E-3,2.245261187E-1
3.789254480E-1,4.581499845E-2,-1.113099977E-2,-4.771700129E-2,6.708073830E-2
3.828691400E-1,4.581499845E-2,-1.113099977E-2,-4.771700129E-2,6.708073830E-2
3.868128320E-1,4.581499845E-2,-1.113099977E-2,-4.771700129E-2,6.708073830E-2
3.907568320E-1,4.581499845E-2,-1.113099977E-2,-4.771700129E-2,6.708073830E-2
3.947007550E-1,4.581499845E-2,-1.113099977E-2,-4.771700129E-2,6.708073830E-2
3.986445250E-1,-9.176100045E-2,4.337299988E-2,-2.657670081E-1,2.844879627E-1
4.025888320E-1,-9.176100045E-2,4.337299988E-2,-2.657670081E-1,2.844879627E-1
4.065328270E-1,-9.176100045E-2,4.337299988E-2,-2.657670081E-1,2.844879627E-1
4.104767500E-1,-9.176100045E-2,4.337299988E-2,-2.657670081E-1,2.844879627E-1
4.144205200E-1,-9.176100045E-2,4.337299988E-2,-2.657670081E-1,2.844879627E-1
4.183638940E-1,-1.470600069E-1,7.055100054E-2,-2.385720015E-1,2.889994622E-1
4.223075100E-1,-1.470600069E-1,7.055100054E-2,-2.385720015E-1,2.889994622E-1
4.262518170E-1,-1.470600069E-1,7.055100054E-2,-2.385720015E-1,2.889994622E-1
4.301954770E-1,-1.470600069E-1,7.055100054E-2,-2.385720015E-1,2.889994622E-1
4.341391690E-1,-1.470600069E-1,7.055100054E-2,-2.385720015E-1,2.889994622E-1
4.380832460E-1,-9.263999760E-2,-7.934600115E-2,-3.424400091E-2,1.266909967E-1
4.420280670E-1,-9.263999760E-2,-7.934600115E-2,-3.424400091E-2,1.266909967E-1
4.459727590E-1,-9.263999760E-2,-7.934600115E-2,-3.424400091E-2,1.266909967E-1
4.499172980E-1,-9.263999760E-2,-7.934600115E-2,-3.424400091E-2,1.266909967E-1
4.538612790E-1,-9.263999760E-2,-7.934600115E-2,-3.424400091E-2,1.266909967E-1
4.578049710E-1,-1.068199985E-2,-1.610520035E-1,-6.990000140E-3,1.615571510E-1
4.617487400E-1,-1.068199985E-2,-1.610520035E-1,-6.990000140E-3,1.615571510E-1
4.656930580E-1,-1.068199985E-2,-1.610520035E-1,-6.990000140E-3,1.615571510E-1
4.696370580E-1,-1.068199985E-2,-1.610520035E-1,-6.990000140E-3,1.615571510E-1
4.735806730E-1,-1.068199985E-2,-1.610520035E-1,-6.990000140E-3,1.615571510E-1
4.775241400E-1,8.486700058E-2,-1.609040052E-1,-1.432300061E-1,2.315325923E-1
4.814678320E-1,8.486700058E-2,-1.609040052E-1,-1.432300061E-1,2.315325923E-1
4.854121400E-1,8.486700058E-2,-1.609040052E-1,-1.432300061E-1,2.315325923E-1
4.893558320E-1,8.486700058E-2,-1.609040052E-1,-1.432300061E-1,2.315325923E-1
4.933001400E-1,8.486700058E-2,-1.609040052E-1,-1.432300061E-1,2.315325923E-1
4.972441400E-1,1.800750047E-1,-1.197220013E-1,-2.795630097E-1,3.534343522E-1
5.011883560E-1,1.800750047E-1,-1.197220013E-1,-2.795630097E-1,3.534343522E-1
5.051324330E-1,1.800750047E-1,-1.197220013E-1,-2.795630097E-1,3.534343522E-1
5.090763560E-1,1.800750047E-1,-1.197220013E-1,-2.795630097E-1,3.534343522E-1
5.130200630E-1,1.800750047E-1,-1.197220013E-1,-2.795630097E-1,3.534343522E-1
5.169643710E-1,1.800750047E-1,-1.197220013E-1,-2.795630097E-1,3.534343522E-1
5.209080630E-1,4.386800155E-2,-5.122800171E-2,-2.797079980E-1,2.877243019E-1
5.248520430E-1,4.386800155E-2,-5.122800171E-2,-2.797079980E-1,2.877243019E-1
5.287961200E-1,4.386800155E-2,-5.122800171E-2,-2.797079980E-1,2.877243019E-1
5.327401200E-1,4.386800155E-2,-5.122800171E-2,-2.797079980E-1,2.877243019E-1
5.366840430E-1,4.386800155E-2,-5.122800171E-2,-2.797079980E-1,2.877243019E-1
5.406283510E-1,5.748799816E-2,-5.122800171E-2,-1.571259946E-1,1.749793024E-1
5.445723510E-1,5.748799816E-2,-5.122800171E-2,-1.571259946E-1,1.749793024E-1
5.485161200E-1,5.748799816E-2,-5.122800171E-2,-1.571259946E-1,1.749793024E-1
5.524598130E-1,5.748799816E-2,-5.122800171E-2,-1.571259946E-1,1.749793024E-1
5.564034280E-1,5.748799816E-2,-5.122800171E-2,-1.571259946E-1,1.749793024E-1
5.603472160E-1,4.378300160E-2,-6.405500323E-2,-1.301839948E-1,1.515515330E-1
5.642909080E-1,4.378300160E-2,-6.405500323E-2,-1.301839948E-1,1.515515330E-1
5.682348320E-1,4.378300160E-2,-6.405500323E-2,-1.301839948E-1,1.515515330E-1
5.721782980E-1,4.378300160E-2,-6.405500323E-2,-1.301839948E-1,1.515515330E-1
5.761222210E-1,4.378300160E-2,-6.405500323E-2,-1.301839948E-1,1.515515330E-1
5.800656060E-1,-1.078900043E-2,-1.038229987E-1,-1.578360051E-1,1.892295487E-1
5.840087700E-1,-1.078900043E-2,-1.038229987E-1,-1.578360051E-1,1.892295487E-1
5.879523850E-1,-1.078900043E-2,-1.038229987E-1,-1.578360051E-1,1.892295487E-1
5.918961540E-1,-1.078900043E-2,-1.038229987E-1,-1.578360051E-1,1.892295487E-1
5.958398470E-1,-1.078900043E-2,-1.038229987E-1,-1.578360051E-1,1.892295487E-1
5.997834620E-1,1.524699926E-1,-1.570519954E-1,-4.935000092E-2,2.243832670E-1
6.037271540E-1,1.524699926E-1,-1.570519954E-1,-4.935000092E-2,2.243832670E-1
6.076711540E-1,1.524699926E-1,-1.570519954E-1,-4.935000092E-2,2.243832670E-1
6.116152310E-1,1.524699926E-1,-1.570519954E-1,-4.935000092E-2,2.243832670E-1
6.155591540E-1,1.524699926E-1,-1.570519954E-1,-4.935000092E-2,2.243832670E-1
6.195029050E-1,8.401499689E-2,-1.146180034E-1,-4.995999858E-2,1.506380027E-1
6.234465970E-1,8.401499689E-2,-1.146180034E-1,-4.995999858E-2,1.506380027E-1
6.273905200E-1,8.401499689E-2,-1.146180034E-1,-4.995999858E-2,1.506380027E-1
6.313348610E-1,8.401499689E-2,-1.146180034E-1,-4.995999858E-2,1.506380027E-1
6.352783220E-1,8.401499689E-2,-1.146180034E-1,-4.995999858E-2,1.506380027E-1
6.392225530E-1,1.540999976E-3,-9.870599955E-2,-1.053519994E-1,1.443755270E-1
6.431660300E-1,1.540999976E-3,-9.870599955E-2,-1.053519994E-1,1.443755270E-1
6.471097220E-1,1.540999976E-3,-9.870599955E-2,-1.053519994E-1,1.443755270E-1
6.510540300E-1,1.540999976E-3,-9.870599955E-2,-1.053519994E-1,1.443755270E-1
6.549980200E-1,1.540999976E-3,-9.870599955E-2,-1.053519994E-1,1.443755270E-1
6.589422500E-1,-4.063799977E-2,-5.480099842E-2,-1.065889969E-1,1.265535883E-1
6.628860200E-1,-4.063799977E-2,-5.480099842E-2,-1.065889969E-1,1.265535883E-1
6.668300150E-1,-4.063799977E-2,-5.480099842E-2,-1.065889969E-1,1.265535883E-1
6.707742450E-1,-4.063799977E-2,-5.480099842E-2,-1.065889969E-1,1.265535883E-1
6.747182450E-1,-4.063799977E-2,-5.480099842E-2,-1.065889969E-1,1.265535883E-1
6.786616500E-1,-4.257300124E-2,-9.243799746E-2,-5.346399918E-2,1.149593103E-1
6.826062650E-1,-4.257300124E-2,-9.243799746E-2,-5.346399918E-2,1.149593103E-1
6.865508810E-1,-4.257300124E-2,-9.243799746E-2,-5.346399918E-2,1.149593103E-1
6.904948960E-1,-4.257300124E-2,-9.243799746E-2,-5.346399918E-2,1.149593103E-1
6.944392040E-1,-4.257300124E-2,-9.243799746E-2,-5.346399918E-2,1.149593103E-1
6.983835880E-1,-8.541200310E-2,-7.989999838E-3,-5.464199930E-2,1.017093824E-1
7.023278480E-1,-8.541200310E-2,-7.989999838E-3,-5.464199930E-2,1.017093824E-1
7.062719250E-1,-8.541200310E-2,-7.989999838E-3,-5.464199930E-2,1.017093824E-1
7.102162330E-1,-8.541200310E-2,-7.989999838E-3,-5.464199930E-2,1.017093824E-1
7.141608520E-1,-8.541200310E-2,-7.989999838E-3,-5.464199930E-2,1.017093824E-1
7.181048520E-1,-5.311999936E-3,-5.760999862E-3,-1.918109953E-1,1.919709988E-1
7.220490830E-1,-5.311999936E-3,-5.760999862E-3,-1.918109953E-1,1.919709988E-1
7.259931170E-1,-5.311999936E-3,-5.760999862E-3,-1.918109953E-1,1.919709988E-1
7.299375010E-1,-5.311999936E-3,-5.760999862E-3,-1.918109953E-1,1.919709988E-1
7.338820400E-1,-5.311999936E-3,-5.760999862E-3,-1.918109953E-1,1.919709988E-1
7.378264240E-1,-1.991100051E-2,-4.465400055E-2,-2.062440068E-1,2.119599444E-1
7.417706550E-1,-1.991100051E-2,-4.465400055E-2,-2.062440068E-1,2.119599444E-1
7.457146550E-1,-1.991100051E-2,-4.465400055E-2,-2.062440068E-1,2.119599444E-1
7.496866930E-1,-1.991100051E-2,-4.465400055E-2,-2.062440068E-1,2.119599444E-1
7.536587140E-1,-1.991100051E-2,-4.465400055E-2,-2.062440068E-1,2.119599444E-1
7.575464060E-1,7.466000319E-2,-8.344700187E-2,-1.639400050E-2,1.131648419E-1
7.614904060E-1,7.466000319E-2,-8.344700187E-2,-1.639400050E-2,1.131648419E-1
7.654340060E-1,7.466000319E-2,-8.344700187E-2,-1.639400050E-2,1.131648419E-1
7.693773910E-1,7.466000319E-2,-8.344700187E-2,-1.639400050E-2,1.131648419E-1
7.733211600E-1,7.466000319E-2,-8.344700187E-2,-1.639400050E-2,1.131648419E-1
7.772648420E-1,-7.745000068E-3,-9.494499862E-2,-2.079260051E-1,2.287089010E-1
7.812091500E-1,-7.745000068E-3,-9.494499862E-2,-2.079260051E-1,2.287089010E-1
7.851525340E-1,-7.745000068E-3,-9.494499862E-2,-2.079260051E-1,2.287089010E-1
7.890961460E-1,-7.745000068E-3,-9.494499862E-2,-2.079260051E-1,2.287089010E-1
7.930398380E-1,-7.745000068E-3,-9.494499862E-2,-2.079260051E-1,2.287089010E-1
7.969841460E-1,-7.745000068E-3,-9.494499862E-2,-2.079260051E-1,2.287089010E-1
8.009279100E-1,4.622799903E-2,-1.202789992E-1,-2.359180003E-1,2.688147474E-1
8.048724490E-1,4.622799903E-2,-1.202789992E-1,-2.359180003E-1,2.688147474E-1
8.088170640E-1,4.622799903E-2,-1.202789992E-1,-2.359180003E-1,2.688147474E-1
8.127611600E-1,4.622799903E-2,-1.202789992E-1,-2.359180003E-1,2.688147474E-1
8.167057750E-1,4.622799903E-2,-1.202789992E-1,-2.359180003E-1,2.688147474E-1
8.206506210E-1,1.682710052E-1,-1.456090063E-1,-1.413329989E-1,2.636136007E-1
8.245946020E-1,1.682710052E-1,-1.456090063E-1,-1.413329989E-1,2.636136007E-1
8.285383720E-1,1.682710052E-1,-1.456090063E-1,-1.413329989E-1,2.636136007E-1
8.324826790E-1,1.682710052E-1,-1.456090063E-1,-1.413329989E-1,2.636136007E-1
8.364273000E-1,1.682710052E-1,-1.456090063E-1,-1.413329989E-1,2.636136007E-1
8.403718380E-1,7.246399671E-2,-1.166739985E-1,-1.692440063E-1,2.179618921E-1
8.443159150E-1,7.246399671E-2,-1.166739985E-1,-1.692440063E-1,2.179618921E-1
8.482598330E-1,7.246399671E-2,-1.166739985E-1,-1.692440063E-1,2.179618921E-1
8.522042180E-1,7.246399671E-2,-1.166739985E-1,-1.692440063E-1,2.179618921E-1
8.561488330E-1,7.246399671E-2,-1.166739985E-1,-1.692440063E-1,2.179618921E-1
8.600934490E-1,-2.307399921E-2,-7.433400303E-2,-1.698109955E-1,1.867986285E-1
8.640376790E-1,-2.307399921E-2,-7.433400303E-2,-1.698109955E-1,1.867986285E-1
8.679822950E-1,-2.307399921E-2,-7.433400303E-2,-1.698109955E-1,1.867986285E-1
8.719263560E-1,-2.307399921E-2,-7.433400303E-2,-1.698109955E-1,1.867986285E-1
8.758708940E-1,-2.307399921E-2,-7.433400303E-2,-1.698109955E-1,1.867986285E-1
8.798152790E-1,-2.305799909E-2,-7.296399772E-2,-1.430799961E-1,1.622568999E-1
8.837595010E-1,-2.305799909E-2,-7.296399772E-2,-1.430799961E-1,1.622568999E-1
8.877038850E-1,-2.305799909E-2,-7.296399772E-2,-1.430799961E-1,1.622568999E-1
8.916484240E-1,-2.305799909E-2,-7.296399772E-2,-1.430799961E-1,1.622568999E-1
8.955927020E-1,-2.305799909E-2,-7.296399772E-2,-1.430799961E-1,1.622568999E-1
8.995364720E-1,-5.015299842E-2,-7.169300318E-2,-6.181899831E-2,1.071298208E-1
9.034803950E-1,-5.015299842E-2,-7.169300318E-2,-6.181899831E-2,1.071298208E-1
9.074243900E-1,-5.015299842E-2,-7.169300318E-2,-6.181899831E-2,1.071298208E-1
9.113687740E-1,-5.015299842E-2,-7.169300318E-2,-6.181899831E-2,1.071298208E-1
9.153130050E-1,-5.015299842E-2,-7.169300318E-2,-6.181899831E-2,1.071298208E-1
9.192569770E-1,4.526599869E-2,-4.329999909E-2,-4.862200096E-2,7.929690748E-2
9.232016700E-1,4.526599869E-2,-4.329999909E-2,-4.862200096E-2,7.929690748E-2
9.271459000E-1,4.526599869E-2,-4.329999909E-2,-4.862200096E-2,7.929690748E-2
9.310899770E-1,4.526599869E-2,-4.329999909E-2,-4.862200096E-2,7.929690748E-2
9.350342080E-1,4.526599869E-2,-4.329999909E-2,-4.862200096E-2,7.929690748E-2
9.389779770E-1,4.529799893E-2,-1.238079965E-1,-1.444150060E-1,1.955403352E-1
9.429219720E-1,4.529799893E-2,-1.238079965E-1,-1.444150060E-1,1.955403352E-1
9.468655880E-1,4.529799893E-2,-1.238079965E-1,-1.444150060E-1,1.955403352E-1
9.508092750E-1,4.529799893E-2,-1.238079965E-1,-1.444150060E-1,1.955403352E-1
9.547535830E-1,4.529799893E-2,-1.238079965E-1,-1.444150060E-1,1.955403352E-1
9.586979670E-1,7.237199694E-2,-8.128099889E-2,-1.586710066E-1,1.924078872E-1
9.626419670E-1,7.237199694E-2,-8.128099889E-2,-1.586710066E-1,1.924078872E-1
9.665865060E-1,7.237199694E-2,-8.128099889E-2,-1.586710066E-1,1.924078872E-1
9.705305830E-1,7.237199694E-2,-8.128099889E-2,-1.586710066E-1,1.924078872E-1
9.744748900E-1,7.237199694E-2,-8.128099889E-2,-1.586710066E-1,1.924078872E-1
9.784192080E-1,7.191000134E-2,-1.065689996E-1,-2.003010064E-1,2.380094392E-1
9.823635160E-1,7.191000134E-2,-1.065689996E-1,-2.003010064E-1,2.380094392E-1
9.863083620E-1,7.191000134E-2,-1.065689996E-1,-2.003010064E-1,2.380094392E-1
9.902526750E-1,7.191000134E-2,-1.065689996E-1,-2.003010064E-1,2.380094392E-1
9.941966750E-1,7.191000134E-2,-1.065689996E-1,-2.003010064E-1,2.380094392E-1
9.981407520E-1,1.668100059E-2,-1.044690013E-1,-1.194270030E-1,1.595457209E-1
1.002084986E0,1.668100059E-2,-1.044690013E-1,-1.194270030E-1,1.595457209E-1
1.006028986E0,1.668100059E-2,-1.044690013E-1,-1.194270030E-1,1.595457209E-1
1.009972756E0,1.668100059E-2,-1.044690013E-1,-1.194270030E-1,1.595457209E-1
1.013917000E0,1.668100059E-2,-1.044690013E-1,-1.194270030E-1,1.595457209E-1
1.017861000E0,-5.246600136E-2,2.014099993E-2,-2.493299916E-2,6.148166901E-2
1.021804770E0,-5.246600136E-2,2.014099993E-2,-2.493299916E-2,6.148166901E-2
1.025748693E0,-5.246600136E-2,2.014099993E-2,-2.493299916E-2,6.148166901E-2
1.029692077E0,-5.246600136E-2,2.014099993E-2,-2.493299916E-2,6.148166901E-2
1.033635847E0,-5.246600136E-2,2.014099993E-2,-2.493299916E-2,6.148166901E-2
1.037580096E0,-5.341799930E-2,-1.140789986E-1,-5.299900100E-2,1.366616064E-1
1.041523558E0,-5.341799930E-2,-1.140789986E-1,-5.299900100E-2,1.366616064E-1
1.045466943E0,-5.341799930E-2,-1.140789986E-1,-5.299900100E-2,1.366616064E-1
1.049410943E0,-5.341799930E-2,-1.140789986E-1,-5.299900100E-2,1.366616064E-1
1.053354558E0,-5.341799930E-2,-1.140789986E-1,-5.299900100E-2,1.366616064E-1
1.057298327E0,1.772219986E-1,-2.073329985E-1,2.786299959E-2,2.741732222E-1
1.061242322E0,1.772219986E-1,-2.073329985E-1,2.786299959E-2,2.741732222E-1
1.065186322E0,1.772219986E-1,-2.073329985E-1,2.786299959E-2,2.741732222E-1
1.069130245E0,1.772219986E-1,-2.073329985E-1,2.786299959E-2,2.741732222E-1
1.073073948E0,1.772219986E-1,-2.073329985E-1,2.786299959E-2,2.741732222E-1
1.077017640E0,1.772219986E-1,-2.073329985E-1,2.786299959E-2,2.741732222E-1
1.080961025E0,6.735599786E-2,-1.096220016E-1,-1.229259968E-1,1.779455377E-1
1.084904481E0,6.735599786E-2,-1.096220016E-1,-1.229259968E-1,1.779455377E-1
1.088848481E0,6.735599786E-2,-1.096220016E-1,-1.229259968E-1,1.779455377E-1
1.092792481E0,6.735599786E-2,-1.096220016E-1,-1.229259968E-1,1.779455377E-1
1.096736178E0,6.735599786E-2,-1.096220016E-1,-1.229259968E-1,1.779455377E-1
1.100680179E0,-1.240020022E-1,6.972300261E-2,-3.009040058E-1,3.328378199E-1
1.104624179E0,-1.240020022E-1,6.972300261E-2,-3.009040058E-1,3.328378199E-1
1.108568188E0,-1.240020022E-1,6.972300261E-2,-3.009040058E-1,3.328378199E-1
1.112512111E0,-1.240020022E-1,6.972300261E-2,-3.009040058E-1,3.328378199E-1
1.116455880E0,-1.240020022E-1,6.972300261E-2,-3.009040058E-1,3.328378199E-1
1.120399481E0,7.957000285E-2,-9.144899994E-2,-1.111359969E-1,1.644552059E-1
1.124343481E0,7.957000285E-2,-9.144899994E-2,-1.111359969E-1,1.644552059E-1
1.128287558E0,7.957000285E-2,-9.144899994E-2,-1.111359969E-1,1.644552059E-1
1.132231490E0,7.957000285E-2,-9.144899994E-2,-1.111359969E-1,1.644552059E-1
1.136175798E0,7.957000285E-2,-9.144899994E-2,-1.111359969E-1,1.644552059E-1
1.140119798E0,-1.656899974E-2,-8.933900297E-2,-1.256179959E-1,1.550350608E-1
1.144063827E0,-1.656899974E-2,-8.933900297E-2,-1.256179959E-1,1.550350608E-1
1.148007212E0,-1.656899974E-2,-8.933900297E-2,-1.256179959E-1,1.550350608E-1
1.151951289E0,-1.656899974E-2,-8.933900297E-2,-1.256179959E-1,1.550350608E-1
1.155895284E0,-1.656899974E-2,-8.933900297E-2,-1.256179959E-1,1.550350608E-1
1.159839207E0,9.933000430E-3,-1.146309972E-1,-1.264140010E-1,1.709369172E-1
1.163782899E0,9.933000430E-3,-1.146309972E-1,-1.264140010E-1,1.709369172E-1
1.167726885E0,9.933000430E-3,-1.146309972E-1,-1.264140010E-1,1.709369172E-1
1.171670962E0,9.933000430E-3,-1.146309972E-1,-1.264140010E-1,1.709369172E-1
1.175614885E0,9.933000430E-3,-1.146309972E-1,-1.264140010E-1,1.709369172E-1
1.179558972E0,1.180960014E-1,-1.398719996E-1,-1.136159971E-1,2.154517037E-1
1.183502972E0,1.180960014E-1,-1.398719996E-1,-1.136159971E-1,2.154517037E-1
1.187447510E0,1.180960014E-1,-1.398719996E-1,-1.136159971E-1,2.154517037E-1
1.191391586E0,1.180960014E-1,-1.398719996E-1,-1.136159971E-1,2.154517037E-1
1.195335586E0,1.180960014E-1,-1.398719996E-1,-1.136159971E-1,2.154517037E-1
1.199279586E0,1.714870036E-1,-1.376670003E-1,-1.554010063E-1,2.692758217E-1
1.203223500E0,1.714870036E-1,-1.376670003E-1,-1.554010063E-1,2.692758217E-1
1.207167577E0,1.714870036E-1,-1.376670003E-1,-1.554010063E-1,2.692758217E-1
1.211111808E0,1.714870036E-1,-1.376670003E-1,-1.554010063E-1,2.692758217E-1
1.215056193E0,1.714870036E-1,-1.376670003E-1,-1.554010063E-1,2.692758217E-1
1.219000500E0,1.562370062E-1,-5.369599909E-2,-1.700109988E-1,2.370590689E-1
1.222944808E0,1.562370062E-1,-5.369599909E-2,-1.700109988E-1,2.370590689E-1
1.226889097E0,1.562370062E-1,-5.369599909E-2,-1.700109988E-1,2.370590689E-1
1.230833405E0,1.562370062E-1,-5.369599909E-2,-1.700109988E-1,2.370590689E-1
1.234778251E0,1.562370062E-1,-5.369599909E-2,-1.700109988E-1,2.370590689E-1
1.238722543E0,5.869499967E-2,-7.879199833E-2,-2.254929990E-1,2.459682389E-1
1.242667159E0,5.869499967E-2,-7.879199833E-2,-2.254929990E-1,2.459682389E-1
1.246611467E0,5.869499967E-2,-7.879199833E-2,-2.254929990E-1,2.459682389E-1
1.250555502E0,5.869499967E-2,-7.879199833E-2,-2.254929990E-1,2.459682389E-1
1.254499578E0,5.869499967E-2,-7.879199833E-2,-2.254929990E-1,2.459682389E-1
1.258443886E0,-6.639699638E-2,-3.564300016E-2,-1.176130027E-1,1.396846555E-1
1.262387550E0,-6.639699638E-2,-3.564300016E-2,-1.176130027E-1,1.396846555E-1
1.266331242E0,-6.639699638E-2,-3.564300016E-2,-1.176130027E-1,1.396846555E-1
1.270275473E0,-6.639699638E-2,-3.564300016E-2,-1.176130027E-1,1.396846555E-1
1.274219794E0,-6.639699638E-2,-3.564300016E-2,-1.176130027E-1,1.396846555E-1
1.278164179E0,9.378000349E-2,-1.421689987E-1,-7.795800269E-2,1.873076705E-1
1.282108717E0,9.378000349E-2,-1.421689987E-1,-7.795800269E-2,1.873076705E-1
1.286052790E0,9.378000349E-2,-1.421689987E-1,-7.795800269E-2,1.873076705E-1
1.289997098E0,9.378000349E-2,-1.421689987E-1,-7.795800269E-2,1.873076705E-1
1.293941329E0,9.378000349E-2,-1.421689987E-1,-7.795800269E-2,1.873076705E-1
1.297885098E0,2.289599925E-2,-8.565499634E-2,-3.811100125E-2,9.650623604E-2
1.301829329E0,2.289599925E-2,-8.565499634E-2,-3.811100125E-2,9.650623604E-2
1.305772713E0,2.289599925E-2,-8.565499634E-2,-3.811100125E-2,9.650623604E-2
1.309716809E0,2.289599925E-2,-8.565499634E-2,-3.811100125E-2,9.650623604E-2
1.313660502E0,2.289599925E-2,-8.565499634E-2,-3.811100125E-2,9.650623604E-2
1.317604425E0,1.020099968E-1,-7.035399973E-2,-1.207010001E-1,1.729868670E-1
1.321548189E0,1.020099968E-1,-7.035399973E-2,-1.207010001E-1,1.729868670E-1
1.325492420E0,1.020099968E-1,-7.035399973E-2,-1.207010001E-1,1.729868670E-1
1.329436804E0,1.020099968E-1,-7.035399973E-2,-1.207010001E-1,1.729868670E-1
1.333380789E0,1.020099968E-1,-7.035399973E-2,-1.207010001E-1,1.729868670E-1
1.337325020E0,1.020099968E-1,-7.035399973E-2,-1.207010001E-1,1.729868670E-1
1.341268713E0,8.507499844E-2,-9.570799768E-2,-1.353279948E-1,1.863100705E-1
1.345212429E0,8.507499844E-2,-9.570799768E-2,-1.353279948E-1,1.863100705E-1
1.349184024E0,8.507499844E-2,-9.570799768E-2,-1.353279948E-1,1.863100705E-1
1.353155583E0,8.507499844E-2,-9.570799768E-2,-1.353279948E-1,1.863100705E-1
1.357041747E0,8.507499844E-2,-9.570799768E-2,-1.353279948E-1,1.863100705E-1
1.360985131E0,8.148799837E-2,-9.367500246E-2,-8.193799853E-2,1.487586487E-1
1.364928131E0,8.148799837E-2,-9.367500246E-2,-8.193799853E-2,1.487586487E-1
1.368871213E0,8.148799837E-2,-9.367500246E-2,-8.193799853E-2,1.487586487E-1
1.372814675E0,8.148799837E-2,-9.367500246E-2,-8.193799853E-2,1.487586487E-1
1.376757367E0,8.148799837E-2,-9.367500246E-2,-8.193799853E-2,1.487586487E-1
1.380700453E0,3.680400178E-2,-1.594499946E-1,-8.316099644E-2,1.835608527E-1
1.384643914E0,3.680400178E-2,-1.594499946E-1,-8.316099644E-2,1.835608527E-1
1.388587530E0,3.680400178E-2,-1.594499946E-1,-8.316099644E-2,1.835608527E-1
1.392530930E0,3.680400178E-2,-1.594499946E-1,-8.316099644E-2,1.835608527E-1
1.396474083E0,3.680400178E-2,-1.594499946E-1,-8.316099644E-2,1.835608527E-1
1.400417699E0,-7.837000303E-3,-1.160449982E-1,-1.253270060E-1,1.709816324E-1
1.404360785E0,-7.837000303E-3,-1.160449982E-1,-1.253270060E-1,1.709816324E-1
1.408304246E0,-7.837000303E-3,-1.160449982E-1,-1.253270060E-1,1.709816324E-1
1.412247862E0,-7.837000303E-3,-1.160449982E-1,-1.253270060E-1,1.709816324E-1
1.416191554E0,-7.837000303E-3,-1.160449982E-1,-1.253270060E-1,1.709816324E-1
1.420135631E0,2.422000049E-3,-5.910699815E-2,-2.355269939E-1,2.428424760E-1
1.424079631E0,2.422000049E-3,-5.910699815E-2,-2.355269939E-1,2.428424760E-1
1.428024174E0,2.422000049E-3,-5.910699815E-2,-2.355269939E-1,2.428424760E-1
1.431968251E0,2.422000049E-3,-5.910699815E-2,-2.355269939E-1,2.428424760E-1
1.435912482E0,2.422000049E-3,-5.910699815E-2,-2.355269939E-1,2.428424760E-1
1.439856216E0,-2.765499987E-2,-2.974499948E-2,-1.276279986E-1,1.339345737E-1
1.443799909E0,-2.765499987E-2,-2.974499948E-2,-1.276279986E-1,1.339345737E-1
1.447743601E0,-2.765499987E-2,-2.974499948E-2,-1.276279986E-1,1.339345737E-1
1.451687553E0,-2.765499987E-2,-2.974499948E-2,-1.276279986E-1,1.339345737E-1
1.455630707E0,-2.765499987E-2,-2.974499948E-2,-1.276279986E-1,1.339345737E-1
1.459574322E0,-5.728099868E-2,-6.858400255E-2,-6.031000055E-3,8.956143800E-2
1.463517698E0,-5.728099868E-2,-6.858400255E-2,-6.031000055E-3,8.956143800E-2
1.467461467E0,-5.728099868E-2,-6.858400255E-2,-6.031000055E-3,8.956143800E-2
1.471404852E0,-5.728099868E-2,-6.858400255E-2,-6.031000055E-3,8.956143800E-2
1.475348231E0,-5.728099868E-2,-6.858400255E-2,-6.031000055E-3,8.956143800E-2
1.479291924E0,-5.938800052E-2,-5.284300074E-2,-8.875200152E-2,1.191479547E-1
1.483235308E0,-5.938800052E-2,-5.284300074E-2,-8.875200152E-2,1.191479547E-1
1.487178996E0,-5.938800052E-2,-5.284300074E-2,-8.875200152E-2,1.191479547E-1
1.491122688E0,-5.938800052E-2,-5.284300074E-2,-8.875200152E-2,1.191479547E-1
1.495066380E0,-5.938800052E-2,-5.284300074E-2,-8.875200152E-2,1.191479547E-1
1.499010616E0,-7.437899709E-2,-7.783699781E-2,-1.850740016E-1,2.141102975E-1
1.502954001E0,-7.437899709E-2,-7.783699781E-2,-1.850740016E-1,2.141102975E-1
1.506897078E0,-7.437899709E-2,-7.783699781E-2,-1.850740016E-1,2.141102975E-1
1.510840245E0,-7.437899709E-2,-7.783699781E-2,-1.850740016E-1,2.141102975E-1
1.514783630E0,-7.437899709E-2,-7.783699781E-2,-1.850740016E-1,2.141102975E-1
1.518726938E0,-6.081100181E-2,-7.575300336E-2,-1.722529978E-1,1.977563923E-1
1.522670015E0,-6.081100181E-2,-7.575300336E-2,-1.722529978E-1,1.977563923E-1
1.526613169E0,-6.081100181E-2,-7.575300336E-2,-1.722529978E-1,1.977563923E-1
1.530555938E0,-6.081100181E-2,-7.575300336E-2,-1.722529978E-1,1.977563923E-1
1.534499312E0,-6.081100181E-2,-7.575300336E-2,-1.722529978E-1,1.977563923E-1
1.538442928E0,6.250499934E-2,-1.146209985E-1,-9.122300148E-2,1.592685915E-1
1.542386312E0,6.250499934E-2,-1.146209985E-1,-9.122300148E-2,1.592685915E-1
1.546329765E0,6.250499934E-2,-1.146209985E-1,-9.122300148E-2,1.592685915E-1
1.550273150E0,6.250499934E-2,-1.146209985E-1,-9.122300148E-2,1.592685915E-1
1.554216842E0,6.250499934E-2,-1.146209985E-1,-9.122300148E-2,1.592685915E-1
1.558160227E0,7.722999901E-2,-1.534010023E-1,-7.829599828E-2,1.887501089E-1
1.562103611E0,7.722999901E-2,-1.534010023E-1,-7.829599828E-2,1.887501089E-1
1.566047304E0,7.722999901E-2,-1.534010023E-1,-7.829599828E-2,1.887501089E-1
1.569990611E0,7.722999901E-2,-1.534010023E-1,-7.829599828E-2,1.887501089E-1
1.573934611E0,7.722999901E-2,-1.534010023E-1,-7.829599828E-2,1.887501089E-1
1.577878073E0,-3.007099964E-2,-6.952799857E-2,-5.172400177E-2,9.172665895E-2
1.581821054E0,-3.007099964E-2,-6.952799857E-2,-5.172400177E-2,9.172665895E-2
1.585764746E0,-3.007099964E-2,-6.952799857E-2,-5.172400177E-2,9.172665895E-2
1.589708131E0,-3.007099964E-2,-6.952799857E-2,-5.172400177E-2,9.172665895E-2
1.593651212E0,-3.007099964E-2,-6.952799857E-2,-5.172400177E-2,9.172665895E-2
1.597593981E0,-5.493199825E-2,-4.019099846E-2,-1.885119975E-1,2.004235864E-1
1.601537058E0,-5.493199825E-2,-4.019099846E-2,-1.885119975E-1,2.004235864E-1
1.605480452E0,-5.493199825E-2,-4.019099846E-2,-1.885119975E-1,2.004235864E-1
1.609423837E0,-5.493199825E-2,-4.019099846E-2,-1.885119975E-1,2.004235864E-1
1.613367606E0,-5.493199825E-2,-4.019099846E-2,-1.885119975E-1,2.004235864E-1
1.617311601E0,-5.493199825E-2,-4.019099846E-2,-1.885119975E-1,2.004235864E-1
1.621255294E0,-2.494399995E-2,-1.113000046E-2,-9.361500293E-2,9.751845373E-2
1.625198601E0,-2.494399995E-2,-1.113000046E-2,-9.361500293E-2,9.751845373E-2
1.629142093E0,-2.494399995E-2,-1.113000046E-2,-9.361500293E-2,9.751845373E-2
1.633085708E0,-2.494399995E-2,-1.113000046E-2,-9.361500293E-2,9.751845373E-2
1.637029708E0,-2.494399995E-2,-1.113000046E-2,-9.361500293E-2,9.751845373E-2
1.640973155E0,4.889999982E-3,-3.676800057E-2,-3.951000050E-2,5.419260194E-2
1.644916847E0,4.889999982E-3,-3.676800057E-2,-3.951000050E-2,5.419260194E-2
1.648860847E0,4.889999982E-3,-3.676800057E-2,-3.951000050E-2,5.419260194E-2
1.652804862E0,4.889999982E-3,-3.676800057E-2,-3.951000050E-2,5.419260194E-2
1.656748478E0,4.889999982E-3,-3.676800057E-2,-3.951000050E-2,5.419260194E-2
1.660691862E0,-4.698999971E-2,-8.019000292E-3,-1.760559976E-1,1.823953912E-1
1.664635328E0,-4.698999971E-2,-8.019000292E-3,-1.760559976E-1,1.823953912E-1
1.668578328E0,-4.698999971E-2,-8.019000292E-3,-1.760559976E-1,1.823953912E-1
1.672521405E0,-4.698999971E-2,-8.019000292E-3,-1.760559976E-1,1.823953912E-1
1.676465165E0,-4.698999971E-2,-8.019000292E-3,-1.760559976E-1,1.823953912E-1
1.680409088E0,-8.511999995E-2,6.918999832E-3,-2.444169968E-1,2.589072330E-1
1.684353165E0,-8.511999995E-2,6.918999832E-3,-2.444169968E-1,2.589072330E-1
1.688297155E0,-8.511999995E-2,6.918999832E-3,-2.444169968E-1,2.589072330E-1
1.692241078E0,-8.511999995E-2,6.918999832E-3,-2.444169968E-1,2.589072330E-1
1.696185078E0,-8.511999995E-2,6.918999832E-3,-2.444169968E-1,2.589072330E-1
1.700128842E0,-5.520100147E-2,-5.741000175E-3,-5.385899916E-2,7.733628797E-2
1.704072765E0,-5.520100147E-2,-5.741000175E-3,-5.385899916E-2,7.733628797E-2
1.708016765E0,-5.520100147E-2,-5.741000175E-3,-5.385899916E-2,7.733628797E-2
1.711960828E0,-5.520100147E-2,-5.741000175E-3,-5.385899916E-2,7.733628797E-2
1.715904444E0,-5.520100147E-2,-5.741000175E-3,-5.385899916E-2,7.733628797E-2
1.719847905E0,1.523000002E-2,-3.248700127E-2,-8.107999712E-2,8.866410821E-2
1.723792126E0,1.523000002E-2,-3.248700127E-2,-8.107999712E-2,8.866410821E-2
1.727736126E0,1.523000002E-2,-3.248700127E-2,-8.107999712E-2,8.866410821E-2
1.731680203E0,1.523000002E-2,-3.248700127E-2,-8.107999712E-2,8.866410821E-2
1.735624203E0,1.523000002E-2,-3.248700127E-2,-8.107999712E-2,8.866410821E-2
1.739567895E0,-1.187179983E-1,4.899499938E-2,-1.080290005E-1,1.678235324E-1
1.743512203E0,-1.187179983E-1,4.899499938E-2,-1.080290005E-1,1.678235324E-1
1.747456506E0,-1.187179983E-1,4.899499938E-2,-1.080290005E-1,1.678235324E-1
1.751400506E0,-1.187179983E-1,4.899499938E-2,-1.080290005E-1,1.678235324E-1
1.755344813E0,-1.187179983E-1,4.899499938E-2,-1.080290005E-1,1.678235324E-1
1.759289030E0,1.946499944E-2,-1.012659967E-1,-1.757860035E-1,2.037999198E-1
1.763233646E0,1.946499944E-2,-1.012659967E-1,-1.757860035E-1,2.037999198E-1
1.767177415E0,1.946499944E-2,-1.012659967E-1,-1.757860035E-1,2.037999198E-1
1.771121723E0,1.946499944E-2,-1.012659967E-1,-1.757860035E-1,2.037999198E-1
1.775065415E0,1.946499944E-2,-1.012659967E-1,-1.757860035E-1,2.037999198E-1
1.779009107E0,2.118709981E-1,-2.238480002E-1,-9.391199797E-2,3.222060061E-1
1.782953011E0,2.118709981E-1,-2.238480002E-1,-9.391199797E-2,3.222060061E-1
1.786897011E0,2.118709981E-1,-2.238480002E-1,-9.391199797E-2,3.222060061E-1
1.790840473E0,2.118709981E-1,-2.238480002E-1,-9.391199797E-2,3.222060061E-1
1.794784169E0,2.118709981E-1,-2.238480002E-1,-9.391199797E-2,3.222060061E-1
1.798727861E0,4.994599894E-2,-6.052000076E-2,-1.345929950E-1,1.557964942E-1
1.802671785E0,4.994599894E-2,-6.052000076E-2,-1.345929950E-1,1.557964942E-1
1.806615497E0,4.994599894E-2,-6.052000076E-2,-1.345929950E-1,1.557964942E-1
1.810559189E0,4.994599894E-2,-6.052000076E-2,-1.345929950E-1,1.557964942E-1
1.814503189E0,4.994599894E-2,-6.052000076E-2,-1.345929950E-1,1.557964942E-1
1.818447159E0,-1.666049957E-1,1.293240041E-1,-1.750120074E-1,2.740640898E-1
1.822391236E0,-1.666049957E-1,1.293240041E-1,-1.750120074E-1,2.740640898E-1
1.826335236E0,-1.666049957E-1,1.293240041E-1,-1.750120074E-1,2.740640898E-1
1.830279236E0,-1.666049957E-1,1.293240041E-1,-1.750120074E-1,2.740640898E-1
1.834222544E0,-1.666049957E-1,1.293240041E-1,-1.750120074E-1,2.740640898E-1
1.838166005E0,-1.244380027E-1,3.261699900E-2,-3.241989911E-1,3.487888630E-1
1.842109914E0,-1.244380027E-1,3.261699900E-2,-3.241989911E-1,3.487888630E-1
1.846053914E0,-1.244380027E-1,3.261699900E-2,-3.241989911E-1,3.487888630E-1
1.849997990E0,-1.244380027E-1,3.261699900E-2,-3.241989911E-1,3.487888630E-1
1.853941375E0,-1.244380027E-1,3.261699900E-2,-3.241989911E-1,3.487888630E-1
1.857885298E0,-1.231879964E-1,-9.828999639E-3,-1.872780025E-1,2.243767856E-1
1.861829298E0,-1.231879964E-1,-9.828999639E-3,-1.872780025E-1,2.243767856E-1
1.865773371E0,-1.231879964E-1,-9.828999639E-3,-1.872780025E-1,2.243767856E-1
1.869717679E0,-1.231879964E-1,-9.828999639E-3,-1.872780025E-1,2.243767856E-1
1.873661063E0,-1.231879964E-1,-9.828999639E-3,-1.872780025E-1,2.243767856E-1
1.877604741E0,-2.652199939E-2,-9.316000342E-2,-1.048239991E-1,1.427244670E-1
1.881548664E0,-2.652199939E-2,-9.316000342E-2,-1.048239991E-1,1.427244670E-1
1.885492356E0,-2.652199939E-2,-9.316000342E-2,-1.048239991E-1,1.427244670E-1
1.889436428E0,-2.652199939E-2,-9.316000342E-2,-1.048239991E-1,1.427244670E-1
1.893380659E0,-2.652199939E-2,-9.316000342E-2,-1.048239991E-1,1.427244670E-1
1.897324351E0,2.937800065E-2,-6.758199632E-2,-2.811290026E-1,2.906267524E-1
1.901268351E0,2.937800065E-2,-6.758199632E-2,-2.811290026E-1,2.906267524E-1
1.905212351E0,2.937800065E-2,-6.758199632E-2,-2.811290026E-1,2.906267524E-1
1.909156428E0,2.937800065E-2,-6.758199632E-2,-2.811290026E-1,2.906267524E-1
1.913100375E0,2.937800065E-2,-6.758199632E-2,-2.811290026E-1,2.906267524E-1
1.917044144E0,2.937800065E-2,-6.758199632E-2,-2.811290026E-1,2.906267524E-1
1.920988144E0,1.737000048E-2,2.578900009E-2,-3.074769974E-1,3.090451316E-1
1.924932452E0,1.737000048E-2,2.578900009E-2,-3.074769974E-1,3.090451316E-1
1.928875837E0,1.737000048E-2,2.578900009E-2,-3.074769974E-1,3.090451316E-1
1.932819529E0,1.737000048E-2,2.578900009E-2,-3.074769974E-1,3.090451316E-1
1.936762828E0,1.737000048E-2,2.578900009E-2,-3.074769974E-1,3.090451316E-1
1.940705982E0,7.347299904E-2,-3.685999895E-3,-1.430359930E-1,1.608451537E-1
1.944649289E0,7.347299904E-2,-3.685999895E-3,-1.430359930E-1,1.608451537E-1
1.948592765E0,7.347299904E-2,-3.685999895E-3,-1.430359930E-1,1.608451537E-1
1.952535842E0,7.347299904E-2,-3.685999895E-3,-1.430359930E-1,1.608451537E-1
1.956479457E0,7.347299904E-2,-3.685999895E-3,-1.430359930E-1,1.608451537E-1
1.960423226E0,-1.015990004E-1,4.861899838E-2,7.788999937E-3,1.129018707E-1
1.964367150E0,-1.015990004E-1,4.861899838E-2,7.788999937E-3,1.129018707E-1
1.968310842E0,-1.015990004E-1,4.861899838E-2,7.788999937E-3,1.129018707E-1
1.972254015E0,-1.015990004E-1,4.861899838E-2,7.788999937E-3,1.129018707E-1
1.976197092E0,-1.015990004E-1,4.861899838E-2,7.788999937E-3,1.129018707E-1
1.980140476E0,-1.801799983E-2,8.727999777E-2,-1.001719981E-1,1.340778712E-1
1.984084467E0,-1.801799983E-2,8.727999777E-2,-1.001719981E-1,1.340778712E-1
1.988028160E0,-1.801799983E-2,8.727999777E-2,-1.001719981E-1,1.340778712E-1
1.991972160E0,-1.801799983E-2,8.727999777E-2,-1.001719981E-1,1.340778712E-1
1.995915775E0,-1.801799983E-2,8.727999777E-2,-1.001719981E-1,1.340778712E-1
1.999859160E0,1.332810074E-1,1.662500016E-2,-2.761369944E-1,3.070697921E-1
2.003802621E0,1.332810074E-1,1.662500016E-2,-2.761369944E-1,3.070697921E-1
2.007746544E0,1.332810074E-1,1.662500016E-2,-2.761369944E-1,3.070697921E-1
2.011689929E0,1.332810074E-1,1.662500016E-2,-2.761369944E-1,3.070697921E-1
2.015633621E0,1.332810074E-1,1.662500016E-2,-2.761369944E-1,3.070697921E-1
2.019577343E0,8.032000065E-2,2.674599923E-2,-1.793320030E-1,1.983094004E-1
2.023520496E0,8.032000065E-2,2.674599923E-2,-1.793320030E-1,1.983094004E-1
2.027464189E0,8.032000065E-2,2.674599923E-2,-1.793320030E-1,1.983094004E-1
2.031407500E0,8.032000065E-2,2.674599923E-2,-1.793320030E-1,1.983094004E-1
2.035351270E0,8.032000065E-2,2.674599923E-2,-1.793320030E-1,1.983094004E-1
2.039294654E0,1.089539975E-1,-3.207200021E-2,-1.230819970E-1,1.674776545E-1
2.043238044E0,1.089539975E-1,-3.207200021E-2,-1.230819970E-1,1.674776545E-1
2.047181659E0,1.089539975E-1,-3.207200021E-2,-1.230819970E-1,1.674776545E-1
2.051125429E0,1.089539975E-1,-3.207200021E-2,-1.230819970E-1,1.674776545E-1
2.055068832E0,1.089539975E-1,-3.207200021E-2,-1.230819970E-1,1.674776545E-1
2.059012217E0,6.921199709E-2,-3.616499901E-2,1.148000010E-3,7.809945966E-2
2.062955601E0,6.921199709E-2,-3.616499901E-2,1.148000010E-3,7.809945966E-2
2.066899554E0,6.921199709E-2,-3.616499901E-2,1.148000010E-3,7.809945966E-2
2.070843323E0,6.921199709E-2,-3.616499901E-2,1.148000010E-3,7.809945966E-2
2.074787015E0,6.921199709E-2,-3.616499901E-2,1.148000010E-3,7.809945966E-2
2.078730721E0,-5.248399824E-2,-6.694599986E-2,-1.608770043E-1,1.819828219E-1
2.082674414E0,-5.248399824E-2,-6.694599986E-2,-1.608770043E-1,1.819828219E-1
2.086618644E0,-5.248399824E-2,-6.694599986E-2,-1.608770043E-1,1.819828219E-1
2.090562731E0,-5.248399824E-2,-6.694599986E-2,-1.608770043E-1,1.819828219E-1
2.094506731E0,-5.248399824E-2,-6.694599986E-2,-1.608770043E-1,1.819828219E-1
2.098450347E0,1.597999968E-2,1.146399975E-2,-1.595930010E-1,1.608002166E-1
2.102394029E0,1.597999968E-2,1.146399975E-2,-1.595930010E-1,1.608002166E-1
2.106337721E0,1.597999968E-2,1.146399975E-2,-1.595930010E-1,1.608002166E-1
2.110281491E0,1.597999968E-2,1.146399975E-2,-1.595930010E-1,1.608002166E-1
2.114225515E0,1.597999968E-2,1.146399975E-2,-1.595930010E-1,1.608002166E-1
2.118170053E0,-2.532099932E-2,-5.623999983E-3,-2.945230007E-1,2.956629506E-1
2.122113822E0,-2.532099932E-2,-5.623999983E-3,-2.945230007E-1,2.956629506E-1
2.126058053E0,-2.532099932E-2,-5.623999983E-3,-2.945230007E-1,2.956629506E-1
2.130002053E0,-2.532099932E-2,-5.623999983E-3,-2.945230007E-1,2.956629506E-1
2.133945515E0,-2.532099932E-2,-5.623999983E-3,-2.945230007E-1,2.956629506E-1
2.137890034E0,-1.255999971E-2,4.499199986E-2,-3.067600131E-1,3.102962122E-1
2.141833727E0,-1.255999971E-2,4.499199986E-2,-3.067600131E-1,3.102962122E-1
2.145777188E0,-1.255999971E-2,4.499199986E-2,-3.067600131E-1,3.102962122E-1
2.149749019E0,-1.255999971E-2,4.499199986E-2,-3.067600131E-1,3.102962122E-1
2.153720808E0,-1.255999971E-2,4.499199986E-2,-3.067600131E-1,3.102962122E-1
2.157607578E0,-6.781399995E-2,9.521599859E-2,-2.643609941E-1,2.890528674E-1
2.161551578E0,-6.781399995E-2,9.521599859E-2,-2.643609941E-1,2.890528674E-1
2.165494621E0,-6.781399995E-2,9.521599859E-2,-2.643609941E-1,2.890528674E-1
2.169438390E0,-6.781399995E-2,9.521599859E-2,-2.643609941E-1,2.890528674E-1
2.173381775E0,-6.781399995E-2,9.521599859E-2,-2.643609941E-1,2.890528674E-1
2.177325785E0,-6.781399995E-2,9.521599859E-2,-2.643609941E-1,2.890528674E-1
2.181269477E0,-5.454400182E-2,3.625399992E-2,-7.201900333E-2,9.734545436E-2
2.185213169E0,-5.454400182E-2,3.625399992E-2,-7.201900333E-2,9.734545436E-2
2.189157149E0,-5.454400182E-2,3.625399992E-2,-7.201900333E-2,9.734545436E-2
2.193101072E0,-5.454400182E-2,3.625399992E-2,-7.201900333E-2,9.734545436E-2
2.197044534E0,-2.755099908E-2,-8.937999606E-3,2.492900006E-2,3.821518587E-2
2.200988564E0,-2.755099908E-2,-8.937999606E-3,2.492900006E-2,3.821518587E-2
2.204932872E0,-2.755099908E-2,-8.937999606E-3,2.492900006E-2,3.821518587E-2
2.208876795E0,-2.755099908E-2,-8.937999606E-3,2.492900006E-2,3.821518587E-2
2.212820834E0,-2.755099908E-2,-8.937999606E-3,2.492900006E-2,3.821518587E-2
2.216764526E0,-2.755099908E-2,-8.937999606E-3,2.492900006E-2,3.821518587E-2
2.220708218E0,1.217930019E-1,-9.431199729E-2,-2.822099999E-2,1.566036813E-1
2.224651843E0,1.217930019E-1,-9.431199729E-2,-2.822099999E-2,1.566036813E-1
2.228595535E0,1.217930019E-1,-9.431199729E-2,-2.822099999E-2,1.566036813E-1
2.232539612E0,1.217930019E-1,-9.431199729E-2,-2.822099999E-2,1.566036813E-1
2.236482992E0,1.217930019E-1,-9.431199729E-2,-2.822099999E-2,1.566036813E-1
2.240426377E0,1.619800031E-1,-5.647300184E-2,-1.769700050E-1,2.464652187E-1
2.244369992E0,1.619800031E-1,-5.647300184E-2,-1.769700050E-1,2.464652187E-1
2.248313150E0,1.619800031E-1,-5.647300184E-2,-1.769700050E-1,2.464652187E-1
2.252256458E0,1.619800031E-1,-5.647300184E-2,-1.769700050E-1,2.464652187E-1
2.256199843E0,1.619800031E-1,-5.647300184E-2,-1.769700050E-1,2.464652187E-1
2.260143612E0,1.610459983E-1,-9.970699996E-2,-1.216809973E-1,2.251301058E-1
2.264087535E0,1.610459983E-1,-9.970699996E-2,-1.216809973E-1,2.251301058E-1
2.268030920E0,1.610459983E-1,-9.970699996E-2,-1.216809973E-1,2.251301058E-1
2.271974699E0,1.610459983E-1,-9.970699996E-2,-1.216809973E-1,2.251301058E-1
2.275918083E0,1.610459983E-1,-9.970699996E-2,-1.216809973E-1,2.251301058E-1
2.279862007E0,1.055030003E-1,-7.439400256E-2,-1.210509986E-1,1.769708873E-1
2.283805477E0,1.055030003E-1,-7.439400256E-2,-1.210509986E-1,1.769708873E-1
2.287749477E0,1.055030003E-1,-7.439400256E-2,-1.210509986E-1,1.769708873E-1
2.291693169E0,1.055030003E-1,-7.439400256E-2,-1.210509986E-1,1.769708873E-1
2.295636843E0,1.055030003E-1,-7.439400256E-2,-1.210509986E-1,1.769708873E-1
2.299581074E0,2.275799960E-2,-8.071999997E-3,-1.749549955E-1,1.766135164E-1
2.303524766E0,2.275799960E-2,-8.071999997E-3,-1.749549955E-1,1.766135164E-1
2.307468203E0,2.275799960E-2,-8.071999997E-3,-1.749549955E-1,1.766135164E-1
2.311411511E0,2.275799960E-2,-8.071999997E-3,-1.749549955E-1,1.766135164E-1
2.315354973E0,2.275799960E-2,-8.071999997E-3,-1.749549955E-1,1.766135164E-1
2.319298665E0,-5.996099859E-2,3.108699992E-2,-2.152670026E-1,2.256138411E-1
2.323242665E0,-5.996099859E-2,3.108699992E-2,-2.152670026E-1,2.256138411E-1
2.327186588E0,-5.996099859E-2,3.108699992E-2,-2.152670026E-1,2.256138411E-1
2.331130362E0,-5.996099859E-2,3.108699992E-2,-2.152670026E-1,2.256138411E-1
2.335074362E0,-5.996099859E-2,3.108699992E-2,-2.152670026E-1,2.256138411E-1
2.339018055E0,-2.001800016E-2,2.951099910E-2,-3.100999892E-1,3.121435931E-1
2.342961376E0,-2.001800016E-2,2.951099910E-2,-3.100999892E-1,3.121435931E-1
2.346904761E0,-2.001800016E-2,2.951099910E-2,-3.100999892E-1,3.121435931E-1
2.350848241E0,-2.001800016E-2,2.951099910E-2,-3.100999892E-1,3.121435931E-1
2.354791549E0,-2.001800016E-2,2.951099910E-2,-3.100999892E-1,3.121435931E-1
2.358734395E0,1.987100020E-2,-1.291100029E-2,-3.096019924E-1,3.105075591E-1
2.362677703E0,1.987100020E-2,-1.291100029E-2,-3.096019924E-1,3.105075591E-1
2.366620848E0,1.987100020E-2,-1.291100029E-2,-3.096019924E-1,3.105075591E-1
2.370564233E0,1.987100020E-2,-1.291100029E-2,-3.096019924E-1,3.105075591E-1
2.374507617E0,1.987100020E-2,-1.291100029E-2,-3.096019924E-1,3.105075591E-1
2.378451238E0,-6.271100044E-2,5.355900154E-2,-1.183829978E-1,1.442767147E-1
2.382394007E0,-6.271100044E-2,5.355900154E-2,-1.183829978E-1,1.442767147E-1
2.386337391E0,-6.271100044E-2,5.355900154E-2,-1.183829978E-1,1.442767147E-1
2.390280544E0,-6.271100044E-2,5.355900154E-2,-1.183829978E-1,1.442767147E-1
2.394223621E0,-6.271100044E-2,5.355900154E-2,-1.183829978E-1,1.442767147E-1
2.398166698E0,7.235600054E-2,-4.337399825E-2,-1.178869978E-1,1.449621978E-1
2.402110031E0,7.235600054E-2,-4.337399825E-2,-1.178869978E-1,1.449621978E-1
2.406053492E0,7.235600054E-2,-4.337399825E-2,-1.178869978E-1,1.449621978E-1
2.409996877E0,7.235600054E-2,-4.337399825E-2,-1.178869978E-1,1.449621978E-1
2.413940184E0,7.235600054E-2,-4.337399825E-2,-1.178869978E-1,1.449621978E-1
2.417883338E0,9.787999839E-2,-1.672820002E-1,-1.175429970E-1,2.266718285E-1
2.421827030E0,9.787999839E-2,-1.672820002E-1,-1.175429970E-1,2.266718285E-1
2.425770722E0,9.787999839E-2,-1.672820002E-1,-1.175429970E-1,2.266718285E-1
2.429714415E0,9.787999839E-2,-1.672820002E-1,-1.175429970E-1,2.266718285E-1
2.433658338E0,9.787999839E-2,-1.672820002E-1,-1.175429970E-1,2.266718285E-1
2.437602319E0,2.752899937E-2,8.576000109E-3,-8.328000084E-3,3.001248357E-2
2.441545780E0,2.752899937E-2,8.576000109E-3,-8.328000084E-3,3.001248357E-2
2.445489472E0,2.752899937E-2,8.576000109E-3,-8.328000084E-3,3.001248357E-2
2.449433401E0,2.752899937E-2,8.576000109E-3,-8.328000084E-3,3.001248357E-2
2.453376785E0,2.752899937E-2,8.576000109E-3,-8.328000084E-3,3.001248357E-2
2.457319862E0,2.752899937E-2,8.576000109E-3,-8.328000084E-3,3.001248357E-2
2.461262910E0,-4.262100160E-2,2.075799927E-2,-7.607399672E-2,8.963647298E-2
2.465205987E0,-4.262100160E-2,2.075799927E-2,-7.607399672E-2,8.963647298E-2
2.469149064E0,-4.262100160E-2,2.075799927E-2,-7.607399672E-2,8.963647298E-2
2.473092411E0,-4.262100160E-2,2.075799927E-2,-7.607399672E-2,8.963647298E-2
2.477035872E0,-4.262100160E-2,2.075799927E-2,-7.607399672E-2,8.963647298E-2
2.480979487E0,-3.387999954E-3,-1.168420017E-1,-1.437990069E-1,1.853151000E-1
2.484923180E0,-3.387999954E-3,-1.168420017E-1,-1.437990069E-1,1.853151000E-1
2.488866641E0,-3.387999954E-3,-1.168420017E-1,-1.437990069E-1,1.853151000E-1
2.492810334E0,-3.387999954E-3,-1.168420017E-1,-1.437990069E-1,1.853151000E-1
2.496754252E0,-3.387999954E-3,-1.168420017E-1,-1.437990069E-1,1.853151000E-1
2.500697713E0,1.178650036E-1,-1.860940009E-1,-6.176599860E-2,2.287753808E-1
2.504641713E0,1.178650036E-1,-1.860940009E-1,-6.176599860E-2,2.287753808E-1
2.508585944E0,1.178650036E-1,-1.860940009E-1,-6.176599860E-2,2.287753808E-1
2.512530252E0,1.178650036E-1,-1.860940009E-1,-6.176599860E-2,2.287753808E-1
2.516474329E0,1.178650036E-1,-1.860940009E-1,-6.176599860E-2,2.287753808E-1
2.520418343E0,2.135900036E-2,3.489000024E-3,-1.704210043E-1,1.717896933E-1
2.524362266E0,2.135900036E-2,3.489000024E-3,-1.704210043E-1,1.717896933E-1
2.528306266E0,2.135900036E-2,3.489000024E-3,-1.704210043E-1,1.717896933E-1
2.532250261E0,2.135900036E-2,3.489000024E-3,-1.704210043E-1,1.717896933E-1
2.536193953E0,2.135900036E-2,3.489000024E-3,-1.704210043E-1,1.717896933E-1
2.540137953E0,-4.766200110E-2,1.519979984E-1,-2.925969958E-1,3.331487053E-1
2.544081718E0,-4.766200110E-2,1.519979984E-1,-2.925969958E-1,3.331487053E-1
2.548025949E0,-4.766200110E-2,1.519979984E-1,-2.925969958E-1,3.331487053E-1
2.551970257E0,-4.766200110E-2,1.519979984E-1,-2.925969958E-1,3.331487053E-1
2.555914040E0,-4.766200110E-2,1.519979984E-1,-2.925969958E-1,3.331487053E-1
2.559857732E0,-7.340999786E-3,7.120000082E-4,-2.512390018E-1,2.513472364E-1
2.563801732E0,-7.340999786E-3,7.120000082E-4,-2.512390018E-1,2.513472364E-1
2.567745746E0,-7.340999786E-3,7.120000082E-4,-2.512390018E-1,2.513472364E-1
2.571689670E0,-7.340999786E-3,7.120000082E-4,-2.512390018E-1,2.513472364E-1
2.575633670E0,-7.340999786E-3,7.120000082E-4,-2.512390018E-1,2.513472364E-1
2.579577721E0,6.010999903E-3,-9.598399699E-2,-5.592999980E-3,9.633452884E-2
2.583521722E0,6.010999903E-3,-9.598399699E-2,-5.592999980E-3,9.633452884E-2
2.587465952E0,6.010999903E-3,-9.598399699E-2,-5.592999980E-3,9.633452884E-2
2.591410015E0,6.010999903E-3,-9.598399699E-2,-5.592999980E-3,9.633452884E-2
2.595354246E0,6.010999903E-3,-9.598399699E-2,-5.592999980E-3,9.633452884E-2
2.599298631E0,-7.586000022E-3,-1.242970005E-1,3.566699848E-2,1.295354257E-1
2.603242905E0,-7.586000022E-3,-1.242970005E-1,3.566699848E-2,1.295354257E-1
2.607186828E0,-7.586000022E-3,-1.242970005E-1,3.566699848E-2,1.295354257E-1
2.611130290E0,-7.586000022E-3,-1.242970005E-1,3.566699848E-2,1.295354257E-1
2.615073982E0,-7.586000022E-3,-1.242970005E-1,3.566699848E-2,1.295354257E-1
2.619018290E0,4.654899985E-2,-1.384679973E-1,-1.863900013E-2,1.472671314E-1
2.622961982E0,4.654899985E-2,-1.384679973E-1,-1.863900013E-2,1.472671314E-1
2.626905933E0,4.654899985E-2,-1.384679973E-1,-1.863900013E-2,1.472671314E-1
2.630849703E0,4.654899985E-2,-1.384679973E-1,-1.863900013E-2,1.472671314E-1
2.634793626E0,4.654899985E-2,-1.384679973E-1,-1.863900013E-2,1.472671314E-1
2.638737082E0,1.004050002E-1,-8.408900350E-2,-1.412390023E-1,1.926151093E-1
2.642680467E0,1.004050002E-1,-8.408900350E-2,-1.412390023E-1,1.926151093E-1
2.646624467E0,1.004050002E-1,-8.408900350E-2,-1.412390023E-1,1.926151093E-1
2.650568713E0,1.004050002E-1,-8.408900350E-2,-1.412390023E-1,1.926151093E-1
2.654512482E0,1.004050002E-1,-8.408900350E-2,-1.412390023E-1,1.926151093E-1
2.658456097E0,8.607900143E-2,-4.315999895E-2,-2.775320113E-1,2.937624845E-1
2.662399814E0,8.607900143E-2,-4.315999895E-2,-2.775320113E-1,2.937624845E-1
2.666343275E0,8.607900143E-2,-4.315999895E-2,-2.775320113E-1,2.937624845E-1
2.670286660E0,8.607900143E-2,-4.315999895E-2,-2.775320113E-1,2.937624845E-1
2.674230289E0,8.607900143E-2,-4.315999895E-2,-2.775320113E-1,2.937624845E-1
2.678174058E0,-9.874000214E-3,-2.373999916E-3,-3.456589878E-1,3.458081369E-1
2.682117674E0,-9.874000214E-3,-2.373999916E-3,-3.456589878E-1,3.458081369E-1
2.686061135E0,-9.874000214E-3,-2.373999916E-3,-3.456589878E-1,3.458081369E-1
2.690005443E0,-9.874000214E-3,-2.373999916E-3,-3.456589878E-1,3.458081369E-1
2.693949366E0,-9.874000214E-3,-2.373999916E-3,-3.456589878E-1,3.458081369E-1
2.697893457E0,-5.125499889E-2,1.110699959E-2,-1.685889959E-1,1.765578939E-1
2.701837072E0,-5.125499889E-2,1.110699959E-2,-1.685889959E-1,1.765578939E-1
2.705781149E0,-5.125499889E-2,1.110699959E-2,-1.685889959E-1,1.765578939E-1
2.709725756E0,-5.125499889E-2,1.110699959E-2,-1.685889959E-1,1.765578939E-1
2.713670294E0,-5.125499889E-2,1.110699959E-2,-1.685889959E-1,1.765578939E-1
2.717615217E0,-5.125499889E-2,1.110699959E-2,-1.685889959E-1,1.765578939E-1
2.721559587E0,5.726199970E-2,-4.369200021E-2,-3.455759883E-1,3.530023954E-1
2.725504433E0,5.726199970E-2,-4.369200021E-2,-3.455759883E-1,3.530023954E-1
2.729448433E0,5.726199970E-2,-4.369200021E-2,-3.455759883E-1,3.530023954E-1
2.733392197E0,5.726199970E-2,-4.369200021E-2,-3.455759883E-1,3.530023954E-1
2.737336428E0,1.601400040E-2,-9.863799810E-2,-3.318180144E-1,3.465387389E-1
2.741280120E0,1.601400040E-2,-9.863799810E-2,-3.318180144E-1,3.465387389E-1
2.745224193E0,1.601400040E-2,-9.863799810E-2,-3.318180144E-1,3.465387389E-1
2.749196056E0,1.601400040E-2,-9.863799810E-2,-3.318180144E-1,3.465387389E-1
2.753167887E0,1.601400040E-2,-9.863799810E-2,-3.318180144E-1,3.465387389E-1
2.757055885E0,1.601400040E-2,-9.863799810E-2,-3.318180144E-1,3.465387389E-1
2.760999577E0,4.295400158E-2,-5.847600102E-2,2.254400030E-2,7.597842389E-2
2.764943808E0,4.295400158E-2,-5.847600102E-2,2.254400030E-2,7.597842389E-2
2.768887885E0,4.295400158E-2,-5.847600102E-2,2.254400030E-2,7.597842389E-2
2.772832116E0,4.295400158E-2,-5.847600102E-2,2.254400030E-2,7.597842389E-2
2.776776423E0,4.295400158E-2,-5.847600102E-2,2.254400030E-2,7.597842389E-2
2.780720409E0,4.259299859E-2,-1.268350035E-1,2.260700054E-2,1.356921446E-1
2.784664717E0,4.259299859E-2,-1.268350035E-1,2.260700054E-2,1.356921446E-1
2.788608794E0,4.259299859E-2,-1.268350035E-1,2.260700054E-2,1.356921446E-1
2.792552828E0,4.259299859E-2,-1.268350035E-1,2.260700054E-2,1.356921446E-1
2.796497059E0,4.259299859E-2,-1.268350035E-1,2.260700054E-2,1.356921446E-1
2.800440751E0,-8.038300276E-2,-8.547800034E-2,3.600800037E-2,1.227374913E-1
2.804385059E0,-8.038300276E-2,-8.547800034E-2,3.600800037E-2,1.227374913E-1
2.808329059E0,-8.038300276E-2,-8.547800034E-2,3.600800037E-2,1.227374913E-1
2.812273136E0,-8.038300276E-2,-8.547800034E-2,3.600800037E-2,1.227374913E-1
2.816217126E0,-8.038300276E-2,-8.547800034E-2,3.600800037E-2,1.227374913E-1
2.820161356E0,-5.350400135E-2,-8.450300246E-2,-4.610599950E-2,1.101326417E-1
2.824105664E0,-5.350400135E-2,-8.450300246E-2,-4.610599950E-2,1.101326417E-1
2.828049346E0,-5.350400135E-2,-8.450300246E-2,-4.610599950E-2,1.101326417E-1
2.831993423E0,-5.350400135E-2,-8.450300246E-2,-4.610599950E-2,1.101326417E-1
2.835937731E0,-5.350400135E-2,-8.450300246E-2,-4.610599950E-2,1.101326417E-1
2.839881654E0,-8.104199916E-2,-4.268899933E-2,-1.145889983E-1,1.466996756E-1
2.843825423E0,-8.104199916E-2,-4.268899933E-2,-1.145889983E-1,1.466996756E-1
2.847769654E0,-8.104199916E-2,-4.268899933E-2,-1.145889983E-1,1.466996756E-1
2.851714294E0,-8.104199916E-2,-4.268899933E-2,-1.145889983E-1,1.466996756E-1
2.855658294E0,-8.104199916E-2,-4.268899933E-2,-1.145889983E-1,1.466996756E-1
2.859602294E0,-4.029399902E-2,1.236100029E-2,-1.420519948E-1,1.481727705E-1
2.863546376E0,-4.029399902E-2,1.236100029E-2,-1.420519948E-1,1.481727705E-1
2.867490376E0,-4.029399902E-2,1.236100029E-2,-1.420519948E-1,1.481727705E-1
2.871434299E0,-4.029399902E-2,1.236100029E-2,-1.420519948E-1,1.481727705E-1
2.875378304E0,-4.029399902E-2,1.236100029E-2,-1.420519948E-1,1.481727705E-1
2.879322073E0,-5.353799835E-2,5.333799869E-2,-2.510229945E-1,2.621522518E-1
2.883266304E0,-5.353799835E-2,5.333799869E-2,-2.510229945E-1,2.621522518E-1
2.887210299E0,-5.353799835E-2,5.333799869E-2,-2.510229945E-1,2.621522518E-1
2.891154376E0,-5.353799835E-2,5.333799869E-2,-2.510229945E-1,2.621522518E-1
2.895098376E0,-5.353799835E-2,5.333799869E-2,-2.510229945E-1,2.621522518E-1
2.899042678E0,-1.203199998E-1,3.953399882E-2,-2.372180074E-1,2.689093201E-1
2.902986909E0,-1.203199998E-1,3.953399882E-2,-2.372180074E-1,2.689093201E-1
2.906930601E0,-1.203199998E-1,3.953399882E-2,-2.372180074E-1,2.689093201E-1
2.910874611E0,-1.203199998E-1,3.953399882E-2,-2.372180074E-1,2.689093201E-1
2.914818996E0,-1.203199998E-1,3.953399882E-2,-2.372180074E-1,2.689093201E-1
2.918763611E0,-1.178470030E-1,1.199600007E-2,-2.505080104E-1,2.771030195E-1
2.922707943E0,-1.178470030E-1,1.199600007E-2,-2.505080104E-1,2.771030195E-1
2.926652789E0,-1.178470030E-1,1.199600007E-2,-2.505080104E-1,2.771030195E-1
2.930597097E0,-1.178470030E-1,1.199600007E-2,-2.505080104E-1,2.771030195E-1
2.934541395E0,-1.178470030E-1,1.199600007E-2,-2.505080104E-1,2.771030195E-1
2.938485395E0,-4.639000073E-2,-2.914600074E-2,-1.956260055E-1,2.031527887E-1
2.942429164E0,-4.639000073E-2,-2.914600074E-2,-1.956260055E-1,2.031527887E-1
2.946373764E0,-4.639000073E-2,-2.914600074E-2,-1.956260055E-1,2.031527887E-1
2.950318611E0,-4.639000073E-2,-2.914600074E-2,-1.956260055E-1,2.031527887E-1
2.954262687E0,-4.639000073E-2,-2.914600074E-2,-1.956260055E-1,2.031527887E-1
2.958206683E0,1.611640006E-1,-1.384070069E-1,-1.135049984E-1,2.408603730E-1
2.962150991E0,1.611640006E-1,-1.384070069E-1,-1.135049984E-1,2.408603730E-1
2.966095607E0,1.611640006E-1,-1.384070069E-1,-1.135049984E-1,2.408603730E-1
2.970039923E0,1.611640006E-1,-1.384070069E-1,-1.135049984E-1,2.408603730E-1
2.973984231E0,1.611640006E-1,-1.384070069E-1,-1.135049984E-1,2.408603730E-1
2.977928154E0,2.799599990E-2,-1.386989951E-1,-1.778800040E-2,1.426099583E-1
2.981872429E0,2.799599990E-2,-1.386989951E-1,-1.778800040E-2,1.426099583E-1
2.985816198E0,2.799599990E-2,-1.386989951E-1,-1.778800040E-2,1.426099583E-1
2.989760429E0,2.799599990E-2,-1.386989951E-1,-1.778800040E-2,1.426099583E-1
2.993704120E0,2.799599990E-2,-1.386989951E-1,-1.778800040E-2,1.426099583E-1
2.997647812E0,2.799599990E-2,-1.386989951E-1,-1.778800040E-2,1.426099583E-1
3.001591889E0,1.727100089E-2,-1.386850029E-1,-4.478000104E-2,1.467551226E-1
3.005536197E0,1.727100089E-2,-1.386850029E-1,-4.478000104E-2,1.467551226E-1
3.009480428E0,1.727100089E-2,-1.386850029E-1,-4.478000104E-2,1.467551226E-1
3.013424120E0,1.727100089E-2,-1.386850029E-1,-4.478000104E-2,1.467551226E-1
3.017367212E0,1.727100089E-2,-1.386850029E-1,-4.478000104E-2,1.467551226E-1
3.021310674E0,2.007200010E-2,-2.963200025E-2,-1.399119943E-1,1.444171277E-1
3.025254904E0,2.007200010E-2,-2.963200025E-2,-1.399119943E-1,1.444171277E-1
3.029198674E0,2.007200010E-2,-2.963200025E-2,-1.399119943E-1,1.444171277E-1
3.033142674E0,2.007200010E-2,-2.963200025E-2,-1.399119943E-1,1.444171277E-1
3.037086904E0,2.007200010E-2,-2.963200025E-2,-1.399119943E-1,1.444171277E-1
3.041030342E0,-1.825699955E-2,-2.977599949E-2,-1.532599926E-1,1.571895464E-1
3.044974034E0,-1.825699955E-2,-2.977599949E-2,-1.532599926E-1,1.571895464E-1
3.048918034E0,-1.825699955E-2,-2.977599949E-2,-1.532599926E-1,1.571895464E-1
3.052862000E0,-1.825699955E-2,-2.977599949E-2,-1.532599926E-1,1.571895464E-1
3.056805693E0,-1.825699955E-2,-2.977599949E-2,-1.532599926E-1,1.571895464E-1
3.060749385E0,-2.957700007E-2,3.765499964E-2,-2.072930038E-1,2.127512335E-1
3.064692688E0,-2.957700007E-2,3.765499964E-2,-2.072930038E-1,2.127512335E-1
3.068636380E0,-2.957700007E-2,3.765499964E-2,-2.072930038E-1,2.127512335E-1
3.072580380E0,-2.957700007E-2,3.765499964E-2,-2.072930038E-1,2.127512335E-1
3.076524438E0,-2.957700007E-2,3.765499964E-2,-2.072930038E-1,2.127512335E-1
3.080468130E0,-1.091360003E-1,5.003499985E-2,-1.930260062E-1,2.273174143E-1
3.084412438E0,-1.091360003E-1,5.003499985E-2,-1.930260062E-1,2.273174143E-1
3.088355842E0,-1.091360003E-1,5.003499985E-2,-1.930260062E-1,2.273174143E-1
3.092300072E0,-1.091360003E-1,5.003499985E-2,-1.930260062E-1,2.273174143E-1
3.096243765E0,-1.091360003E-1,5.003499985E-2,-1.930260062E-1,2.273174143E-1
3.100187524E0,-1.070260033E-1,3.480099887E-2,-1.922460049E-1,2.227649015E-1
3.104131447E0,-1.070260033E-1,3.480099887E-2,-1.922460049E-1,2.227649015E-1
3.108075139E0,-1.070260033E-1,3.480099887E-2,-1.922460049E-1,2.227649015E-1
3.112018601E0,-1.070260033E-1,3.480099887E-2,-1.922460049E-1,2.227649015E-1
3.115961909E0,-1.070260033E-1,3.480099887E-2,-1.922460049E-1,2.227649015E-1
3.119904985E0,-9.642999619E-3,5.894000176E-3,-2.050729990E-1,2.053841805E-1
3.123848698E0,-9.642999619E-3,5.894000176E-3,-2.050729990E-1,2.053841805E-1
3.127792390E0,-9.642999619E-3,5.894000176E-3,-2.050729990E-1,2.053841805E-1
3.131736159E0,-9.642999619E-3,5.894000176E-3,-2.050729990E-1,2.053841805E-1
3.135680091E0,-9.642999619E-3,5.894000176E-3,-2.050729990E-1,2.053841805E-1
3.139623784E0,-4.856900126E-2,4.189999774E-3,-2.859979868E-1,2.901229954E-1
3.143567861E0,-4.856900126E-2,4.189999774E-3,-2.859979868E-1,2.901229954E-1
3.147511568E0,-4.856900126E-2,4.189999774E-3,-2.859979868E-1,2.901229954E-1
3.151455183E0,-4.856900126E-2,4.189999774E-3,-2.859979868E-1,2.901229954E-1
3.155399183E0,-4.856900126E-2,4.189999774E-3,-2.859979868E-1,2.901229954E-1
3.159342669E0,1.709779948E-1,-1.333640069E-1,-1.491560042E-1,2.631861444E-1
3.163287207E0,1.709779948E-1,-1.333640069E-1,-1.491560042E-1,2.631861444E-1
3.167231515E0,1.709779948E-1,-1.333640069E-1,-1.491560042E-1,2.631861444E-1
3.171175612E0,1.709779948E-1,-1.333640069E-1,-1.491560042E-1,2.631861444E-1
3.175119535E0,1.709779948E-1,-1.333640069E-1,-1.491560042E-1,2.631861444E-1
3.179063227E0,-4.714000039E-3,-3.900200129E-2,-6.695300341E-2,7.762784659E-2
3.183006689E0,-4.714000039E-3,-3.900200129E-2,-6.695300341E-2,7.762784659E-2
3.186950920E0,-4.714000039E-3,-3.900200129E-2,-6.695300341E-2,7.762784659E-2
3.190894612E0,-4.714000039E-3,-3.900200129E-2,-6.695300341E-2,7.762784659E-2
3.194838289E0,-4.714000039E-3,-3.900200129E-2,-6.695300341E-2,7.762784659E-2
3.198782059E0,-1.124420017E-1,4.162799940E-2,-1.345459968E-1,1.802185322E-1
3.202726059E0,-1.124420017E-1,4.162799940E-2,-1.345459968E-1,1.802185322E-1
3.206670055E0,-1.124420017E-1,4.162799940E-2,-1.345459968E-1,1.802185322E-1
3.210614285E0,-1.124420017E-1,4.162799940E-2,-1.345459968E-1,1.802185322E-1
3.214557978E0,-1.124420017E-1,4.162799940E-2,-1.345459968E-1,1.802185322E-1
3.218501968E0,7.940500230E-2,-1.095739976E-1,-1.884180009E-1,2.319762022E-1
3.222446045E0,7.940500230E-2,-1.095739976E-1,-1.884180009E-1,2.319762022E-1
3.226389737E0,7.940500230E-2,-1.095739976E-1,-1.884180009E-1,2.319762022E-1
3.230334031E0,7.940500230E-2,-1.095739976E-1,-1.884180009E-1,2.319762022E-1
3.234278338E0,7.940500230E-2,-1.095739976E-1,-1.884180009E-1,2.319762022E-1
3.238221954E0,2.438520044E-1,-1.655109972E-1,-1.073000021E-2,2.949115514E-1
3.242165973E0,2.438520044E-1,-1.655109972E-1,-1.073000021E-2,2.949115514E-1
3.246110588E0,2.438520044E-1,-1.655109972E-1,-1.073000021E-2,2.949115514E-1
3.250054896E0,2.438520044E-1,-1.655109972E-1,-1.073000021E-2,2.949115514E-1
3.253998977E0,2.438520044E-1,-1.655109972E-1,-1.073000021E-2,2.949115514E-1
3.257943285E0,5.386599898E-2,3.722799942E-2,-6.457500160E-2,9.196412680E-2
3.261887515E0,5.386599898E-2,3.722799942E-2,-6.457500160E-2,9.196412680E-2
3.265831242E0,5.386599898E-2,3.722799942E-2,-6.457500160E-2,9.196412680E-2
3.269775011E0,5.386599898E-2,3.722799942E-2,-6.457500160E-2,9.196412680E-2
3.273719319E0,5.386599898E-2,3.722799942E-2,-6.457500160E-2,9.196412680E-2
3.277663319E0,-1.497389972E-1,1.847549975E-1,-4.722769856E-1,5.287737962E-1
3.281607319E0,-1.497389972E-1,1.847549975E-1,-4.722769856E-1,5.287737962E-1
3.285550934E0,-1.497389972E-1,1.847549975E-1,-4.722769856E-1,5.287737962E-1
3.289494718E0,-1.497389972E-1,1.847549975E-1,-4.722769856E-1,5.287737962E-1
3.293438718E0,-1.497389972E-1,1.847549975E-1,-4.722769856E-1,5.287737962E-1
3.297382641E0,-1.497389972E-1,1.847549975E-1,-4.722769856E-1,5.287737962E-1
3.301326324E0,-1.624390036E-1,1.135590002E-1,-3.620940149E-1,4.127882654E-1
3.305269708E0,-1.624390036E-1,1.135590002E-1,-3.620940149E-1,4.127882654E-1
3.309213170E0,-1.624390036E-1,1.135590002E-1,-3.620940149E-1,4.127882654E-1
3.313156867E0,-1.624390036E-1,1.135590002E-1,-3.620940149E-1,4.127882654E-1
3.317100867E0,-1.624390036E-1,1.135590002E-1,-3.620940149E-1,4.127882654E-1
3.321044790E0,-3.896500170E-2,-6.685400009E-2,-4.751700163E-2,9.080525387E-2
3.324988775E0,-3.896500170E-2,-6.685400009E-2,-4.751700163E-2,9.080525387E-2
3.328933083E0,-3.896500170E-2,-6.685400009E-2,-4.751700163E-2,9.080525387E-2
3.332877160E0,-3.896500170E-2,-6.685400009E-2,-4.751700163E-2,9.080525387E-2
3.336821458E0,-3.896500170E-2,-6.685400009E-2,-4.751700163E-2,9.080525387E-2
3.340765688E0,-3.816699982E-2,-1.105630025E-1,3.532100096E-2,1.221821203E-1
3.344709765E0,-3.816699982E-2,-1.105630025E-1,3.532100096E-2,1.221821203E-1
3.348654053E0,-3.816699982E-2,-1.105630025E-1,3.532100096E-2,1.221821203E-1
3.352598668E0,-3.816699982E-2,-1.105630025E-1,3.532100096E-2,1.221821203E-1
3.356542899E0,-3.816699982E-2,-1.105630025E-1,3.532100096E-2,1.221821203E-1
3.360487207E0,3.064299934E-2,-1.769299991E-2,-9.991300106E-2,1.059936009E-1
3.364431607E0,3.064299934E-2,-1.769299991E-2,-9.991300106E-2,1.059936009E-1
3.368376222E0,3.064299934E-2,-1.769299991E-2,-9.991300106E-2,1.059936009E-1
3.372320145E0,3.064299934E-2,-1.769299991E-2,-9.991300106E-2,1.059936009E-1
3.376264453E0,3.064299934E-2,-1.769299991E-2,-9.991300106E-2,1.059936009E-1
3.380208760E0,1.536529958E-1,2.090300061E-2,-2.216289937E-1,2.704913851E-1
3.384153145E0,1.536529958E-1,2.090300061E-2,-2.216289937E-1,2.704913851E-1
3.388097679E0,1.536529958E-1,2.090300061E-2,-2.216289937E-1,2.704913851E-1
3.392042063E0,1.536529958E-1,2.090300061E-2,-2.216289937E-1,2.704913851E-1
3.395986371E0,1.536529958E-1,2.090300061E-2,-2.216289937E-1,2.704913851E-1
3.399930679E0,5.864400044E-2,7.277999818E-2,-2.751249969E-1,2.905680830E-1
3.403875217E0,5.864400044E-2,7.277999818E-2,-2.751249969E-1,2.905680830E-1
3.407819909E0,5.864400044E-2,7.277999818E-2,-2.751249969E-1,2.905680830E-1
3.411764154E0,5.864400044E-2,7.277999818E-2,-2.751249969E-1,2.905680830E-1
3.415708231E0,5.864400044E-2,7.277999818E-2,-2.751249969E-1,2.905680830E-1
3.419652769E0,4.527999833E-2,5.608399957E-2,-1.513919979E-1,1.676759682E-1
3.423597178E0,4.527999833E-2,5.608399957E-2,-1.513919979E-1,1.676759682E-1
3.427542024E0,4.527999833E-2,5.608399957E-2,-1.513919979E-1,1.676759682E-1
3.431486332E0,4.527999833E-2,5.608399957E-2,-1.513919979E-1,1.676759682E-1
3.435430717E0,4.527999833E-2,5.608399957E-2,-1.513919979E-1,1.676759682E-1
3.439374332E0,1.269029975E-1,-4.236400127E-2,-1.366419941E-1,1.912331403E-1
3.443318409E0,1.269029975E-1,-4.236400127E-2,-1.366419941E-1,1.912331403E-1
3.447263255E0,1.269029975E-1,-4.236400127E-2,-1.366419941E-1,1.912331403E-1
3.451207947E0,1.269029975E-1,-4.236400127E-2,-1.366419941E-1,1.912331403E-1
3.455152486E0,1.269029975E-1,-4.236400127E-2,-1.366419941E-1,1.912331403E-1
3.459096462E0,1.397829950E-1,-8.639000356E-2,-2.581279874E-1,3.059944056E-1
3.463040539E0,1.397829950E-1,-8.639000356E-2,-2.581279874E-1,3.059944056E-1
3.466984847E0,1.397829950E-1,-8.639000356E-2,-2.581279874E-1,3.059944056E-1
3.470929058E0,1.397829950E-1,-8.639000356E-2,-2.581279874E-1,3.059944056E-1
3.474873443E0,1.397829950E-1,-8.639000356E-2,-2.581279874E-1,3.059944056E-1
3.478817443E0,9.800700098E-2,-1.033739969E-1,-9.353099763E-2,1.704101024E-1
3.482761727E0,9.800700098E-2,-1.033739969E-1,-9.353099763E-2,1.704101024E-1
3.486706034E0,9.800700098E-2,-1.033739969E-1,-9.353099763E-2,1.704101024E-1
3.490650265E0,9.800700098E-2,-1.033739969E-1,-9.353099763E-2,1.704101024E-1
3.494594255E0,9.800700098E-2,-1.033739969E-1,-9.353099763E-2,1.704101024E-1
3.498538255E0,1.511240005E-1,-7.932999730E-2,-3.799699992E-2,1.748584685E-1
3.502482563E0,1.511240005E-1,-7.932999730E-2,-3.799699992E-2,1.748584685E-1
3.506426227E0,1.511240005E-1,-7.932999730E-2,-3.799699992E-2,1.748584685E-1
3.510369689E0,1.511240005E-1,-7.932999730E-2,-3.799699992E-2,1.748584685E-1
3.514313612E0,1.511240005E-1,-7.932999730E-2,-3.799699992E-2,1.748584685E-1
3.518257318E0,3.978199884E-2,1.335200015E-2,-2.551530004E-1,2.585806198E-1
3.522201010E0,3.978199884E-2,1.335200015E-2,-2.551530004E-1,2.585806198E-1
3.526144703E0,3.978199884E-2,1.335200015E-2,-2.551530004E-1,2.585806198E-1
3.530088780E0,3.978199884E-2,1.335200015E-2,-2.551530004E-1,2.585806198E-1
3.534032472E0,3.978199884E-2,1.335200015E-2,-2.551530004E-1,2.585806198E-1
3.537976395E0,-1.129859984E-1,1.125200000E-2,-2.137760073E-1,2.420591346E-1
3.541920164E0,-1.129859984E-1,1.125200000E-2,-2.137760073E-1,2.420591346E-1
3.545864164E0,-1.129859984E-1,1.125200000E-2,-2.137760073E-1,2.420591346E-1
3.549836489E0,-1.129859984E-1,1.125200000E-2,-2.137760073E-1,2.420591346E-1
3.553808780E0,-1.129859984E-1,1.125200000E-2,-2.137760073E-1,2.420591346E-1
3.557697395E0,-1.022109985E-1,-1.785700023E-2,-2.265200019E-2,1.062029839E-1
3.561641703E0,-1.022109985E-1,-1.785700023E-2,-2.265200019E-2,1.062029839E-1
3.565585087E0,-1.022109985E-1,-1.785700023E-2,-2.265200019E-2,1.062029839E-1
3.569529011E0,-1.022109985E-1,-1.785700023E-2,-2.265200019E-2,1.062029839E-1
3.573472780E0,-1.022109985E-1,-1.785700023E-2,-2.265200019E-2,1.062029839E-1
3.577416766E0,-1.182370037E-1,-6.062000059E-3,-4.943199828E-2,1.282975422E-1
3.581360766E0,-1.182370037E-1,-6.062000059E-3,-4.943199828E-2,1.282975422E-1
3.585304766E0,-1.182370037E-1,-6.062000059E-3,-4.943199828E-2,1.282975422E-1
3.589249055E0,-1.182370037E-1,-6.062000059E-3,-4.943199828E-2,1.282975422E-1
3.593192978E0,-1.182370037E-1,-6.062000059E-3,-4.943199828E-2,1.282975422E-1
3.597136747E0,-1.182370037E-1,-6.062000059E-3,-4.943199828E-2,1.282975422E-1
3.601080651E0,-9.286200255E-2,5.692999810E-3,-1.170160025E-1,1.494941692E-1
3.605024651E0,-9.286200255E-2,5.692999810E-3,-1.170160025E-1,1.494941692E-1
3.608968651E0,-9.286200255E-2,5.692999810E-3,-1.170160025E-1,1.494941692E-1
3.612912656E0,-9.286200255E-2,5.692999810E-3,-1.170160025E-1,1.494941692E-1
3.616856425E0,-9.286200255E-2,5.692999810E-3,-1.170160025E-1,1.494941692E-1
3.620800118E0,-5.342400074E-2,3.105000034E-2,-1.300739944E-1,1.440051054E-1
3.624744118E0,-5.342400074E-2,3.105000034E-2,-1.300739944E-1,1.440051054E-1
3.628688733E0,-5.342400074E-2,3.105000034E-2,-1.300739944E-1,1.440051054E-1
3.632633041E0,-5.342400074E-2,3.105000034E-2,-1.300739944E-1,1.440051054E-1
3.636576988E0,-5.342400074E-2,3.105000034E-2,-1.300739944E-1,1.440051054E-1
3.640521295E0,1.338400040E-2,-1.153200027E-2,-2.657609880E-1,2.663475572E-1
3.644465065E0,1.338400040E-2,-1.153200027E-2,-2.657609880E-1,2.663475572E-1
3.648409308E0,1.338400040E-2,-1.153200027E-2,-2.657609880E-1,2.663475572E-1
3.652353385E0,1.338400040E-2,-1.153200027E-2,-2.657609880E-1,2.663475572E-1
3.656298232E0,1.338400040E-2,-1.153200027E-2,-2.657609880E-1,2.663475572E-1
3.660242630E0,3.984199837E-2,-5.395000055E-2,-2.652629912E-1,2.736100179E-1
3.664186630E0,3.984199837E-2,-5.395000055E-2,-2.652629912E-1,2.736100179E-1
3.668130553E0,3.984199837E-2,-5.395000055E-2,-2.652629912E-1,2.736100179E-1
3.672074346E0,3.984199837E-2,-5.395000055E-2,-2.652629912E-1,2.736100179E-1
3.676018577E0,3.984199837E-2,-5.395000055E-2,-2.652629912E-1,2.736100179E-1
3.679962962E0,-1.432299986E-2,-1.459500007E-2,-2.238280028E-1,2.247601771E-1
3.683906885E0,-1.432299986E-2,-1.459500007E-2,-2.238280028E-1,2.247601771E-1
3.687850885E0,-1.432299986E-2,-1.459500007E-2,-2.238280028E-1,2.247601771E-1
3.691794962E0,-1.432299986E-2,-1.459500007E-2,-2.238280028E-1,2.247601771E-1
3.695738900E0,-1.432299986E-2,-1.459500007E-2,-2.238280028E-1,2.247601771E-1
3.699683208E0,4.171000049E-2,-9.768600017E-2,-8.699499816E-2,1.372967897E-1
3.703628131E0,4.171000049E-2,-9.768600017E-2,-8.699499816E-2,1.372967897E-1
3.707572519E0,4.171000049E-2,-9.768600017E-2,-8.699499816E-2,1.372967897E-1
3.711517135E0,4.171000049E-2,-9.768600017E-2,-8.699499816E-2,1.372967897E-1
3.715461366E0,4.171000049E-2,-9.768600017E-2,-8.699499816E-2,1.372967897E-1
3.719405372E0,-1.013199985E-2,-7.182099670E-2,-1.271300018E-1,1.463658100E-1
3.723349141E0,-1.013199985E-2,-7.182099670E-2,-1.271300018E-1,1.463658100E-1
3.727293449E0,-1.013199985E-2,-7.182099670E-2,-1.271300018E-1,1.463658100E-1
3.731238000E0,-1.013199985E-2,-7.182099670E-2,-1.271300018E-1,1.463658100E-1
3.735182000E0,-1.013199985E-2,-7.182099670E-2,-1.271300018E-1,1.463658100E-1
3.739126077E0,8.835499734E-2,-3.244199976E-2,-1.127030030E-1,1.468368339E-1
3.743070069E0,8.835499734E-2,-3.244199976E-2,-1.127030030E-1,1.468368339E-1
3.747014377E0,8.835499734E-2,-3.244199976E-2,-1.127030030E-1,1.468368339E-1
3.750958620E0,8.835499734E-2,-3.244199976E-2,-1.127030030E-1,1.468368339E-1
3.754902620E0,8.835499734E-2,-3.244199976E-2,-1.127030030E-1,1.468368339E-1
3.758846928E0,-3.684000112E-3,-2.029800043E-2,-1.663679928E-1,1.676421477E-1
3.762790082E0,-3.684000112E-3,-2.029800043E-2,-1.663679928E-1,1.676421477E-1
3.766733726E0,-3.684000112E-3,-2.029800043E-2,-1.663679928E-1,1.676421477E-1
3.770677803E0,-3.684000112E-3,-2.029800043E-2,-1.663679928E-1,1.676421477E-1
3.774622111E0,-3.684000112E-3,-2.029800043E-2,-1.663679928E-1,1.676421477E-1
3.778566357E0,-4.178100079E-2,3.265200183E-2,-1.247180030E-1,1.355226384E-1
3.782510741E0,-4.178100079E-2,3.265200183E-2,-1.247180030E-1,1.355226384E-1
3.786454972E0,-4.178100079E-2,3.265200183E-2,-1.247180030E-1,1.355226384E-1
3.790399607E0,-4.178100079E-2,3.265200183E-2,-1.247180030E-1,1.355226384E-1
3.794343376E0,-4.178100079E-2,3.265200183E-2,-1.247180030E-1,1.355226384E-1
3.798287914E0,1.175999991E-3,-9.832999669E-3,-1.239529997E-1,1.243479674E-1
3.802231971E0,1.175999991E-3,-9.832999669E-3,-1.239529997E-1,1.243479674E-1
3.806176202E0,1.175999991E-3,-9.832999669E-3,-1.239529997E-1,1.243479674E-1
3.810120279E0,1.175999991E-3,-9.832999669E-3,-1.239529997E-1,1.243479674E-1
3.814064284E0,1.175999991E-3,-9.832999669E-3,-1.239529997E-1,1.243479674E-1
3.818007899E0,-5.167600140E-2,-2.512099966E-2,-1.776950061E-1,1.867538191E-1
3.821951361E0,-5.167600140E-2,-2.512099966E-2,-1.776950061E-1,1.867538191E-1
3.825894947E0,-5.167600140E-2,-2.512099966E-2,-1.776950061E-1,1.867538191E-1
3.829838640E0,-5.167600140E-2,-2.512099966E-2,-1.776950061E-1,1.867538191E-1
3.833782640E0,-5.167600140E-2,-2.512099966E-2,-1.776950061E-1,1.867538191E-1
3.837726717E0,8.581399918E-2,-2.675000019E-2,-1.769980043E-1,1.985142274E-1
3.841670409E0,8.581399918E-2,-2.675000019E-2,-1.769980043E-1,1.985142274E-1
3.845613717E0,8.581399918E-2,-2.675000019E-2,-1.769980043E-1,1.985142274E-1
3.849557164E0,8.581399918E-2,-2.675000019E-2,-1.769980043E-1,1.985142274E-1
3.853500856E0,8.581399918E-2,-2.675000019E-2,-1.769980043E-1,1.985142274E-1
3.857444164E0,1.411959976E-1,-1.641449928E-1,-1.356289983E-1,2.554899481E-1
3.861387223E0,1.411959976E-1,-1.641449928E-1,-1.356289983E-1,2.554899481E-1
3.865330069E0,1.411959976E-1,-1.641449928E-1,-1.356289983E-1,2.554899481E-1
3.869273377E0,1.411959976E-1,-1.641449928E-1,-1.356289983E-1,2.554899481E-1
3.873216770E0,1.411959976E-1,-1.641449928E-1,-1.356289983E-1,2.554899481E-1
3.877160154E0,1.411959976E-1,-1.641449928E-1,-1.356289983E-1,2.554899481E-1
3.881103308E0,-8.520999923E-3,-1.530400012E-2,-2.169869989E-1,2.176928514E-1
3.885046991E0,-8.520999923E-3,-1.530400012E-2,-2.169869989E-1,2.176928514E-1
3.888990991E0,-8.520999923E-3,-1.530400012E-2,-2.169869989E-1,2.176928514E-1
3.892933991E0,-8.520999923E-3,-1.530400012E-2,-2.169869989E-1,2.176928514E-1
3.896877145E0,-8.520999923E-3,-1.530400012E-2,-2.169869989E-1,2.176928514E-1
3.900820145E0,8.596900105E-2,-7.060500234E-2,-1.350409985E-1,1.749623010E-1
3.904763222E0,8.596900105E-2,-7.060500234E-2,-1.350409985E-1,1.749623010E-1
3.908706905E0,8.596900105E-2,-7.060500234E-2,-1.350409985E-1,1.749623010E-1
3.912650981E0,8.596900105E-2,-7.060500234E-2,-1.350409985E-1,1.749623010E-1
3.916595212E0,8.596900105E-2,-7.060500234E-2,-1.350409985E-1,1.749623010E-1
3.920538895E0,2.765000099E-3,-3.043299913E-2,-8.043599874E-2,8.604511930E-2
3.924482587E0,2.765000099E-3,-3.043299913E-2,-8.043599874E-2,8.604511930E-2
3.928426048E0,2.765000099E-3,-3.043299913E-2,-8.043599874E-2,8.604511930E-2
3.932369760E0,2.765000099E-3,-3.043299913E-2,-8.043599874E-2,8.604511930E-2
3.936313375E0,2.765000099E-3,-3.043299913E-2,-8.043599874E-2,8.604511930E-2
3.940257067E0,8.269499987E-2,2.339299954E-2,-1.756920069E-1,1.955847048E-1
3.944200534E0,8.269499987E-2,2.339299954E-2,-1.756920069E-1,1.955847048E-1
3.948144842E0,8.269499987E-2,2.339299954E-2,-1.756920069E-1,1.955847048E-1
3.952088765E0,8.269499987E-2,2.339299954E-2,-1.756920069E-1,1.955847048E-1
3.956032756E0,8.269499987E-2,2.339299954E-2,-1.756920069E-1,1.955847048E-1
3.959976217E0,-1.364179999E-1,1.451919973E-1,-1.755090058E-1,2.655070581E-1
3.963920140E0,-1.364179999E-1,1.451919973E-1,-1.755090058E-1,2.655070581E-1
3.967864207E0,-1.364179999E-1,1.451919973E-1,-1.755090058E-1,2.655070581E-1
3.971808130E0,-1.364179999E-1,1.451919973E-1,-1.755090058E-1,2.655070581E-1
3.975751900E0,-1.364179999E-1,1.451919973E-1,-1.755090058E-1,2.655070581E-1
3.979695900E0,-1.094269976E-1,6.236299872E-2,-2.159920037E-1,2.500319121E-1
3.983639515E0,-1.094269976E-1,6.236299872E-2,-2.159920037E-1,2.500319121E-1
3.987583592E0,-1.094269976E-1,6.236299872E-2,-2.159920037E-1,2.500319121E-1
3.991527236E0,-1.094269976E-1,6.236299872E-2,-2.159920037E-1,2.500319121E-1
3.995471236E0,-1.094269976E-1,6.236299872E-2,-2.159920037E-1,2.500319121E-1
3.999414621E0,1.763000041E-1,-1.297129989E-1,-1.746550053E-1,2.800205786E-1
4.003357770E0,1.763000041E-1,-1.297129989E-1,-1.746550053E-1,2.800205786E-1
4.007301155E0,1.763000041E-1,-1.297129989E-1,-1.746550053E-1,2.800205786E-1
4.011244770E0,1.763000041E-1,-1.297129989E-1,-1.746550053E-1,2.800205786E-1
4.015188866E0,1.763000041E-1,-1.297129989E-1,-1.746550053E-1,2.800205786E-1
4.019132558E0,1.210490018E-1,-4.953100160E-2,-1.071999967E-2,1.312291864E-1
4.023076789E0,1.210490018E-1,-4.953100160E-2,-1.071999967E-2,1.312291864E-1
4.027021064E0,1.210490018E-1,-4.953100160E-2,-1.071999967E-2,1.312291864E-1
4.030964833E0,1.210490018E-1,-4.953100160E-2,-1.071999967E-2,1.312291864E-1
4.034908756E0,1.210490018E-1,-4.953100160E-2,-1.071999967E-2,1.312291864E-1
4.038852237E0,5.178999901E-2,5.755300075E-2,-1.327250004E-1,1.536570129E-1
4.042796237E0,5.178999901E-2,5.755300075E-2,-1.327250004E-1,1.536570129E-1
4.046740160E0,5.178999901E-2,5.755300075E-2,-1.327250004E-1,1.536570129E-1
4.050683962E0,5.178999901E-2,5.755300075E-2,-1.327250004E-1,1.536570129E-1
4.054627577E0,5.178999901E-2,5.755300075E-2,-1.327250004E-1,1.536570129E-1
4.058571885E0,7.735399902E-2,5.514999852E-2,-2.545849979E-1,2.717327449E-1
4.062515659E0,7.735399902E-2,5.514999852E-2,-2.545849979E-1,2.717327449E-1
4.066459967E0,7.735399902E-2,5.514999852E-2,-2.545849979E-1,2.717327449E-1
4.070404582E0,7.735399902E-2,5.514999852E-2,-2.545849979E-1,2.717327449E-1
4.074348597E0,7.735399902E-2,5.514999852E-2,-2.545849979E-1,2.717327449E-1
4.078292290E0,-4.686300084E-2,3.853800148E-2,-1.583060026E-1,1.695349783E-1
4.082236520E0,-4.686300084E-2,3.853800148E-2,-1.583060026E-1,1.695349783E-1
4.086180500E0,-4.686300084E-2,3.853800148E-2,-1.583060026E-1,1.695349783E-1
4.090124193E0,-4.686300084E-2,3.853800148E-2,-1.583060026E-1,1.695349783E-1
4.094067654E0,-4.686300084E-2,3.853800148E-2,-1.583060026E-1,1.695349783E-1
4.098011901E0,-2.099700086E-2,-8.752299845E-2,-1.026899964E-1,1.365517655E-1
4.101955901E0,-2.099700086E-2,-8.752299845E-2,-1.026899964E-1,1.365517655E-1
4.105899978E0,-2.099700086E-2,-8.752299845E-2,-1.026899964E-1,1.365517655E-1
4.109843674E0,-2.099700086E-2,-8.752299845E-2,-1.026899964E-1,1.365517655E-1
4.113787367E0,-2.099700086E-2,-8.752299845E-2,-1.026899964E-1,1.365517655E-1
4.117731059E0,1.868199930E-2,-9.074100107E-2,-2.378389984E-1,2.552456377E-1
4.121675281E0,1.868199930E-2,-9.074100107E-2,-2.378389984E-1,2.552456377E-1
4.125619358E0,1.868199930E-2,-9.074100107E-2,-2.378389984E-1,2.552456377E-1
4.129563358E0,1.868199930E-2,-9.074100107E-2,-2.378389984E-1,2.552456377E-1
4.133506973E0,1.868199930E-2,-9.074100107E-2,-2.378389984E-1,2.552456377E-1
4.137450435E0,-2.315299958E-2,-5.299000069E-2,-1.550859958E-1,1.655163667E-1
4.141394665E0,-2.315299958E-2,-5.299000069E-2,-1.550859958E-1,1.655163667E-1
4.145338660E0,-2.315299958E-2,-5.299000069E-2,-1.550859958E-1,1.655163667E-1
4.149310717E0,-2.315299958E-2,-5.299000069E-2,-1.550859958E-1,1.655163667E-1
4.153282738E0,-2.315299958E-2,-5.299000069E-2,-1.550859958E-1,1.655163667E-1
4.157171050E0,-2.315299958E-2,-5.299000069E-2,-1.550859958E-1,1.655163667E-1
4.161114973E0,1.394290030E-1,-5.598000064E-2,-1.540890038E-1,2.152153072E-1
4.165059281E0,1.394290030E-1,-5.598000064E-2,-1.540890038E-1,2.152153072E-1
4.169003266E0,1.394290030E-1,-5.598000064E-2,-1.540890038E-1,2.152153072E-1
4.172947343E0,1.394290030E-1,-5.598000064E-2,-1.540890038E-1,2.152153072E-1
4.176891035E0,1.394290030E-1,-5.598000064E-2,-1.540890038E-1,2.152153072E-1
4.180834713E0,-6.554800272E-2,3.639699891E-2,-1.939470023E-1,2.079344173E-1
4.184778406E0,-6.554800272E-2,3.639699891E-2,-1.939470023E-1,2.079344173E-1
4.188722329E0,-6.554800272E-2,3.639699891E-2,-1.939470023E-1,2.079344173E-1
4.192666021E0,-6.554800272E-2,3.639699891E-2,-1.939470023E-1,2.079344173E-1
4.196609483E0,-6.554800272E-2,3.639699891E-2,-1.939470023E-1,2.079344173E-1
4.200553483E0,2.915799990E-2,2.013999969E-2,-1.658170074E-1,1.695614593E-1
4.204497386E0,2.915799990E-2,2.013999969E-2,-1.658170074E-1,1.695614593E-1
4.208441155E0,2.915799990E-2,2.013999969E-2,-1.658170074E-1,1.695614593E-1
4.212385386E0,2.915799990E-2,2.013999969E-2,-1.658170074E-1,1.695614593E-1
4.216329170E0,2.915799990E-2,2.013999969E-2,-1.658170074E-1,1.695614593E-1
4.220273093E0,6.928700209E-2,-5.018699914E-2,-1.650850028E-1,1.859367680E-1
4.224217093E0,6.928700209E-2,-5.018699914E-2,-1.650850028E-1,1.859367680E-1
4.228160478E0,6.928700209E-2,-5.018699914E-2,-1.650850028E-1,1.859367680E-1
4.232104478E0,6.928700209E-2,-5.018699914E-2,-1.650850028E-1,1.859367680E-1
4.236048247E0,6.928700209E-2,-5.018699914E-2,-1.650850028E-1,1.859367680E-1
4.239992232E0,1.230959967E-1,-7.942000031E-2,-1.644310057E-1,2.202219709E-1
4.243936155E0,1.230959967E-1,-7.942000031E-2,-1.644310057E-1,2.202219709E-1
4.247880232E0,1.230959967E-1,-7.942000031E-2,-1.644310057E-1,2.202219709E-1
4.251824141E0,1.230959967E-1,-7.942000031E-2,-1.644310057E-1,2.202219709E-1
4.255767833E0,1.230959967E-1,-7.942000031E-2,-1.644310057E-1,2.202219709E-1
4.259711603E0,8.149500191E-2,-8.133599907E-2,-1.229510009E-1,1.684456254E-1
4.263655589E0,8.149500191E-2,-8.133599907E-2,-1.229510009E-1,1.684456254E-1
4.267599896E0,8.149500191E-2,-8.133599907E-2,-1.229510009E-1,1.684456254E-1
4.271544435E0,8.149500191E-2,-8.133599907E-2,-1.229510009E-1,1.684456254E-1
4.275488762E0,8.149500191E-2,-8.133599907E-2,-1.229510009E-1,1.684456254E-1
4.279432762E0,2.611799911E-2,-5.585300177E-2,-1.632619947E-1,1.745170095E-1
4.283376762E0,2.611799911E-2,-5.585300177E-2,-1.632619947E-1,1.745170095E-1
4.287320212E0,2.611799911E-2,-5.585300177E-2,-1.632619947E-1,1.745170095E-1
4.291264212E0,2.611799911E-2,-5.585300177E-2,-1.632619947E-1,1.745170095E-1
4.295207828E0,2.611799911E-2,-5.585300177E-2,-1.632619947E-1,1.745170095E-1
4.299151607E0,-1.107179970E-1,1.084700041E-2,-1.491969973E-1,1.861071634E-1
4.303094991E0,-1.107179970E-1,1.084700041E-2,-1.491969973E-1,1.861071634E-1
4.307038607E0,-1.107179970E-1,1.084700041E-2,-1.491969973E-1,1.861071634E-1
4.310982073E0,-1.107179970E-1,1.084700041E-2,-1.491969973E-1,1.861071634E-1
4.314925689E0,-1.107179970E-1,1.084700041E-2,-1.491969973E-1,1.861071634E-1
4.318869381E0,-2.951299958E-2,2.338900045E-2,-9.437599778E-2,1.016114730E-1
4.322813130E0,-2.951299958E-2,2.338900045E-2,-9.437599778E-2,1.016114730E-1
4.326756515E0,-2.951299958E-2,2.338900045E-2,-9.437599778E-2,1.016114730E-1
4.330700130E0,-2.951299958E-2,2.338900045E-2,-9.437599778E-2,1.016114730E-1
4.334643900E0,-2.951299958E-2,2.338900045E-2,-9.437599778E-2,1.016114730E-1
4.338587823E0,-7.071799785E-2,3.587200120E-2,-1.076209992E-1,1.336791501E-1
4.342531823E0,-7.071799785E-2,3.587200120E-2,-1.076209992E-1,1.336791501E-1
4.346475818E0,-7.071799785E-2,3.587200120E-2,-1.076209992E-1,1.336791501E-1
4.350419587E0,-7.071799785E-2,3.587200120E-2,-1.076209992E-1,1.336791501E-1
4.354363510E0,-7.071799785E-2,3.587200120E-2,-1.076209992E-1,1.336791501E-1
4.358307501E0,1.075099967E-2,7.474000100E-3,-2.025749981E-1,2.029977205E-1
4.362250963E0,1.075099967E-2,7.474000100E-3,-2.025749981E-1,2.029977205E-1
4.366194963E0,1.075099967E-2,7.474000100E-3,-2.025749981E-1,2.029977205E-1
4.370138963E0,1.075099967E-2,7.474000100E-3,-2.025749981E-1,2.029977205E-1
4.374082655E0,1.075099967E-2,7.474000100E-3,-2.025749981E-1,2.029977205E-1
4.378026039E0,2.413200028E-2,-2.088199928E-2,-2.021960020E-1,2.046988875E-1
4.381969433E0,2.413200028E-2,-2.088199928E-2,-2.021960020E-1,2.046988875E-1
4.385913048E0,2.413200028E-2,-2.088199928E-2,-2.021960020E-1,2.046988875E-1
4.389856741E0,2.413200028E-2,-2.088199928E-2,-2.021960020E-1,2.046988875E-1
4.393800433E0,2.413200028E-2,-2.088199928E-2,-2.021960020E-1,2.046988875E-1
4.397743895E0,3.755699843E-2,-7.660499960E-2,-1.200499982E-1,1.472781591E-1
4.401687895E0,3.755699843E-2,-7.660499960E-2,-1.200499982E-1,1.472781591E-1
4.405631823E0,3.755699843E-2,-7.660499960E-2,-1.200499982E-1,1.472781591E-1
4.409575592E0,3.755699843E-2,-7.660499960E-2,-1.200499982E-1,1.472781591E-1
4.413519207E0,3.755699843E-2,-7.660499960E-2,-1.200499982E-1,1.472781591E-1
4.417462900E0,3.755699843E-2,-7.660499960E-2,-1.200499982E-1,1.472781591E-1
4.421406592E0,1.054129973E-1,-9.141500294E-2,-1.196490005E-1,1.838055660E-1
4.425350284E0,1.054129973E-1,-9.141500294E-2,-1.196490005E-1,1.838055660E-1
4.429293443E0,1.054129973E-1,-9.141500294E-2,-1.196490005E-1,1.838055660E-1
4.433236751E0,1.054129973E-1,-9.141500294E-2,-1.196490005E-1,1.838055660E-1
4.437180443E0,1.054129973E-1,-9.141500294E-2,-1.196490005E-1,1.838055660E-1
4.441123601E0,7.785700262E-2,-1.195119992E-1,-1.057519987E-1,1.775621470E-1
4.445067216E0,7.785700262E-2,-1.195119992E-1,-1.057519987E-1,1.775621470E-1
4.449010909E0,7.785700262E-2,-1.195119992E-1,-1.057519987E-1,1.775621470E-1
4.452954375E0,7.785700262E-2,-1.195119992E-1,-1.057519987E-1,1.775621470E-1
4.456898068E0,7.785700262E-2,-1.195119992E-1,-1.057519987E-1,1.775621470E-1
4.460841375E0,7.746200264E-2,-3.839199990E-2,-1.191930026E-1,1.472456430E-1
4.464785054E0,7.746200264E-2,-3.839199990E-2,-1.191930026E-1,1.472456430E-1
4.468728438E0,7.746200264E-2,-3.839199990E-2,-1.191930026E-1,1.472456430E-1
4.472671823E0,7.746200264E-2,-3.839199990E-2,-1.191930026E-1,1.472456430E-1
4.476614972E0,7.746200264E-2,-3.839199990E-2,-1.191930026E-1,1.472456430E-1
4.480558587E0,8.937999606E-3,-3.891300038E-2,-1.054230034E-1,1.127302936E-1
4.484502049E0,8.937999606E-3,-3.891300038E-2,-1.054230034E-1,1.127302936E-1
4.488445722E0,8.937999606E-3,-3.891300038E-2,-1.054230034E-1,1.127302936E-1
4.492389414E0,8.937999606E-3,-3.891300038E-2,-1.054230034E-1,1.127302936E-1
4.496333107E0,8.937999606E-3,-3.891300038E-2,-1.054230034E-1,1.127302936E-1
4.500277030E0,-1.864100061E-2,-8.032900095E-2,-1.869779974E-1,2.043550998E-1
4.504221030E0,-1.864100061E-2,-8.032900095E-2,-1.869779974E-1,2.043550998E-1
4.508164722E0,-1.864100061E-2,-8.032900095E-2,-1.869779974E-1,2.043550998E-1
4.512108418E0,-1.864100061E-2,-8.032900095E-2,-1.869779974E-1,2.043550998E-1
4.516051803E0,-1.864100061E-2,-8.032900095E-2,-1.869779974E-1,2.043550998E-1
4.519995572E0,3.553299978E-2,-6.714200228E-2,-6.426600367E-2,9.950257168E-2
4.523939265E0,3.553299978E-2,-6.714200228E-2,-6.426600367E-2,9.950257168E-2
4.527882572E0,3.553299978E-2,-6.714200228E-2,-6.426600367E-2,9.950257168E-2
4.531825957E0,3.553299978E-2,-6.714200228E-2,-6.426600367E-2,9.950257168E-2
4.535769039E0,3.553299978E-2,-6.714200228E-2,-6.426600367E-2,9.950257168E-2
4.539712731E0,6.233299896E-2,-9.463500232E-2,-1.595569998E-1,1.957028937E-1
4.543655885E0,6.233299896E-2,-9.463500232E-2,-1.595569998E-1,1.957028937E-1
4.547598972E0,6.233299896E-2,-9.463500232E-2,-1.595569998E-1,1.957028937E-1
4.551542357E0,6.233299896E-2,-9.463500232E-2,-1.595569998E-1,1.957028937E-1
4.555486049E0,6.233299896E-2,-9.463500232E-2,-1.595569998E-1,1.957028937E-1
4.559429972E0,-1.015660018E-1,-4.043100029E-2,-1.867399961E-1,2.163842523E-1
4.563374357E0,-1.015660018E-1,-4.043100029E-2,-1.867399961E-1,2.163842523E-1
4.567318357E0,-1.015660018E-1,-4.043100029E-2,-1.867399961E-1,2.163842523E-1
4.571262265E0,-1.015660018E-1,-4.043100029E-2,-1.867399961E-1,2.163842523E-1
4.575206342E0,-1.015660018E-1,-4.043100029E-2,-1.867399961E-1,2.163842523E-1
4.579150265E0,-7.476600260E-2,-4.048499838E-2,-1.050359979E-1,1.351353066E-1
4.583094270E0,-7.476600260E-2,-4.048499838E-2,-1.050359979E-1,1.351353066E-1
4.587037962E0,-7.476600260E-2,-4.048499838E-2,-1.050359979E-1,1.351353066E-1
4.590981962E0,-7.476600260E-2,-4.048499838E-2,-1.050359979E-1,1.351353066E-1
4.594926039E0,-7.476600260E-2,-4.048499838E-2,-1.050359979E-1,1.351353066E-1
4.598869731E0,1.017799973E-1,-9.457200021E-2,-9.160000086E-2,1.664139154E-1
4.602813039E0,1.017799973E-1,-9.457200021E-2,-9.160000086E-2,1.664139154E-1
4.606756419E0,1.017799973E-1,-9.457200021E-2,-9.160000086E-2,1.664139154E-1
4.610700188E0,1.017799973E-1,-9.457200021E-2,-9.160000086E-2,1.664139154E-1
4.614644419E0,1.017799973E-1,-9.457200021E-2,-9.160000086E-2,1.664139154E-1
4.618588188E0,6.028699875E-2,-6.639599800E-2,-1.464689970E-1,1.717443386E-1
4.622531803E0,6.028699875E-2,-6.639599800E-2,-1.464689970E-1,1.717443386E-1
4.626475265E0,6.028699875E-2,-6.639599800E-2,-1.464689970E-1,1.717443386E-1
4.630418870E0,6.028699875E-2,-6.639599800E-2,-1.464689970E-1,1.717443386E-1
4.634362332E0,6.028699875E-2,-6.639599800E-2,-1.464689970E-1,1.717443386E-1
4.638306024E0,5.951400101E-2,-9.226799756E-2,-1.878830045E-1,2.176127825E-1
4.642249658E0,5.951400101E-2,-9.226799756E-2,-1.878830045E-1,2.176127825E-1
4.646192812E0,5.951400101E-2,-9.226799756E-2,-1.878830045E-1,2.176127825E-1
4.650135889E0,5.951400101E-2,-9.226799756E-2,-1.878830045E-1,2.176127825E-1
4.654079578E0,5.951400101E-2,-9.226799756E-2,-1.878830045E-1,2.176127825E-1
4.658022655E0,-6.371100247E-2,-6.344199926E-2,-1.143699978E-2,9.063544599E-2
4.661965655E0,-6.371100247E-2,-6.344199926E-2,-1.143699978E-2,9.063544599E-2
4.665908808E0,-6.371100247E-2,-6.344199926E-2,-1.143699978E-2,9.063544599E-2
4.669852116E0,-6.371100247E-2,-6.344199926E-2,-1.143699978E-2,9.063544599E-2
4.673796116E0,-6.371100247E-2,-6.344199926E-2,-1.143699978E-2,9.063544599E-2
4.677739501E0,-3.684300184E-2,-7.549499720E-2,4.245299846E-2,9.412310272E-2
4.681682655E0,-3.684300184E-2,-7.549499720E-2,4.245299846E-2,9.412310272E-2
4.685626578E0,-3.684300184E-2,-7.549499720E-2,4.245299846E-2,9.412310272E-2
4.689570039E0,-3.684300184E-2,-7.549499720E-2,4.245299846E-2,9.412310272E-2
4.693513424E0,-3.684300184E-2,-7.549499720E-2,4.245299846E-2,9.412310272E-2
4.697457116E0,3.098499961E-2,-3.308900073E-2,-1.215630025E-1,1.297401855E-1
4.701400193E0,3.098499961E-2,-3.308900073E-2,-1.215630025E-1,1.297401855E-1
4.705343270E0,3.098499961E-2,-3.308900073E-2,-1.215630025E-1,1.297401855E-1
4.709286885E0,3.098499961E-2,-3.308900073E-2,-1.215630025E-1,1.297401855E-1
4.713230592E0,3.098499961E-2,-3.308900073E-2,-1.215630025E-1,1.297401855E-1
4.717174361E0,3.098499961E-2,-3.308900073E-2,-1.215630025E-1,1.297401855E-1
4.721117976E0,-3.729100153E-2,9.015999734E-3,-2.990860045E-1,3.015366398E-1
4.725061457E0,-3.729100153E-2,9.015999734E-3,-2.990860045E-1,3.015366398E-1
4.729004534E0,-3.729100153E-2,9.015999734E-3,-2.990860045E-1,3.015366398E-1
4.732947842E0,-3.729100153E-2,9.015999734E-3,-2.990860045E-1,3.015366398E-1
4.736891606E0,-3.729100153E-2,9.015999734E-3,-2.990860045E-1,3.015366398E-1
4.740834683E0,9.880500287E-2,-1.260569990E-1,-2.586359978E-1,3.042127133E-1
4.744777760E0,9.880500287E-2,-1.260569990E-1,-2.586359978E-1,3.042127133E-1
4.748721159E0,9.880500287E-2,-1.260569990E-1,-2.586359978E-1,3.042127133E-1
4.752664544E0,9.880500287E-2,-1.260569990E-1,-2.586359978E-1,3.042127133E-1
4.756607621E0,9.880500287E-2,-1.260569990E-1,-2.586359978E-1,3.042127133E-1
4.760551313E0,-6.450700015E-2,-2.976400033E-2,-2.453439981E-1,2.554226423E-1
4.764495221E0,-6.450700015E-2,-2.976400033E-2,-2.453439981E-1,2.554226423E-1
4.768438606E0,-6.450700015E-2,-2.976400033E-2,-2.453439981E-1,2.554226423E-1
4.772382067E0,-6.450700015E-2,-2.976400033E-2,-2.453439981E-1,2.554226423E-1
4.776325390E0,-6.450700015E-2,-2.976400033E-2,-2.453439981E-1,2.554226423E-1
4.780269159E0,-2.131879926E-1,1.190000027E-2,-1.093270034E-1,2.398814788E-1
4.784212852E0,-2.131879926E-1,1.190000027E-2,-1.093270034E-1,2.398814788E-1
4.788156770E0,-2.131879926E-1,1.190000027E-2,-1.093270034E-1,2.398814788E-1
4.792100770E0,-2.131879926E-1,1.190000027E-2,-1.093270034E-1,2.398814788E-1
4.796044539E0,-2.131879926E-1,1.190000027E-2,-1.093270034E-1,2.398814788E-1
4.799988544E0,7.416199893E-2,-2.188320011E-1,-2.778000012E-2,2.327212392E-1
4.803932544E0,7.416199893E-2,-2.188320011E-1,-2.778000012E-2,2.327212392E-1
4.807876544E0,7.416199893E-2,-2.188320011E-1,-2.778000012E-2,2.327212392E-1
4.811820544E0,7.416199893E-2,-2.188320011E-1,-2.778000012E-2,2.327212392E-1
4.815764159E0,7.416199893E-2,-2.188320011E-1,-2.778000012E-2,2.327212392E-1
4.819708236E0,2.923159897E-1,-2.723059952E-1,-9.622099996E-2,4.109229535E-1
4.823651568E0,2.923159897E-1,-2.723059952E-1,-9.622099996E-2,4.109229535E-1
4.827595030E0,2.923159897E-1,-2.723059952E-1,-9.622099996E-2,4.109229535E-1
4.831538953E0,2.923159897E-1,-2.723059952E-1,-9.622099996E-2,4.109229535E-1
4.835482703E0,2.923159897E-1,-2.723059952E-1,-9.622099996E-2,4.109229535E-1
4.839426395E0,1.286049932E-1,-5.308699980E-2,-6.946499646E-2,1.555083907E-1
4.843370318E0,1.286049932E-1,-5.308699980E-2,-6.946499646E-2,1.555083907E-1
4.847314322E0,1.286049932E-1,-5.308699980E-2,-6.946499646E-2,1.555083907E-1
4.851258015E0,1.286049932E-1,-5.308699980E-2,-6.946499646E-2,1.555083907E-1
4.855201784E0,1.286049932E-1,-5.308699980E-2,-6.946499646E-2,1.555083907E-1
4.859145476E0,-1.303730011E-1,8.437000215E-2,-2.469940037E-1,2.917558132E-1
4.863090015E0,-1.303730011E-1,8.437000215E-2,-2.469940037E-1,2.917558132E-1
4.867034015E0,-1.303730011E-1,8.437000215E-2,-2.469940037E-1,2.917558132E-1
4.870977996E0,-1.303730011E-1,8.437000215E-2,-2.469940037E-1,2.917558132E-1
4.874922380E0,-1.303730011E-1,8.437000215E-2,-2.469940037E-1,2.917558132E-1
4.878866380E0,-2.117819935E-1,8.527799696E-2,-1.928090006E-1,2.988298182E-1
4.882810597E0,-2.117819935E-1,8.527799696E-2,-1.928090006E-1,2.988298182E-1
4.886754289E0,-2.117819935E-1,8.527799696E-2,-1.928090006E-1,2.988298182E-1
4.890697674E0,-2.117819935E-1,8.527799696E-2,-1.928090006E-1,2.988298182E-1
4.894641380E0,-2.117819935E-1,8.527799696E-2,-1.928090006E-1,2.988298182E-1
4.898584842E0,-1.019620001E-1,-5.023200065E-2,-1.591699943E-2,1.147730553E-1
4.902527919E0,-1.019620001E-1,-5.023200065E-2,-1.591699943E-2,1.147730553E-1
4.906471290E0,-1.019620001E-1,-5.023200065E-2,-1.591699943E-2,1.147730553E-1
4.910415290E0,-1.019620001E-1,-5.023200065E-2,-1.591699943E-2,1.147730553E-1
4.914359290E0,-1.019620001E-1,-5.023200065E-2,-1.591699943E-2,1.147730553E-1
4.918302885E0,8.159999736E-3,-1.449809968E-1,-7.050999999E-2,1.614240848E-1
4.922246346E0,8.159999736E-3,-1.449809968E-1,-7.050999999E-2,1.614240848E-1
4.926190654E0,8.159999736E-3,-1.449809968E-1,-7.050999999E-2,1.614240848E-1
4.930134577E0,8.159999736E-3,-1.449809968E-1,-7.050999999E-2,1.614240848E-1
4.934078577E0,8.159999736E-3,-1.449809968E-1,-7.050999999E-2,1.614240848E-1
4.938022039E0,9.526999667E-3,-1.170210019E-1,-1.251309961E-1,1.715880089E-1
4.941965333E0,9.526999667E-3,-1.170210019E-1,-1.251309961E-1,1.715880089E-1
4.945909409E0,9.526999667E-3,-1.170210019E-1,-1.251309961E-1,1.715880089E-1
4.949881132E0,9.526999667E-3,-1.170210019E-1,-1.251309961E-1,1.715880089E-1
4.953852809E0,9.526999667E-3,-1.170210019E-1,-1.251309961E-1,1.715880089E-1
4.957740731E0,2.446799912E-2,-6.150500104E-2,-1.253869981E-1,1.417866264E-1
4.961684423E0,2.446799912E-2,-6.150500104E-2,-1.253869981E-1,1.417866264E-1
4.965628414E0,2.446799912E-2,-6.150500104E-2,-1.253869981E-1,1.417866264E-1
4.969572107E0,2.446799912E-2,-6.150500104E-2,-1.253869981E-1,1.417866264E-1
4.973515876E0,2.446799912E-2,-6.150500104E-2,-1.253869981E-1,1.417866264E-1
4.977459491E0,2.598600090E-2,-1.964399964E-2,-1.528539956E-1,1.562866051E-1
4.981403491E0,2.598600090E-2,-1.964399964E-2,-1.528539956E-1,1.562866051E-1
4.985346876E0,2.598600090E-2,-1.964399964E-2,-1.528539956E-1,1.562866051E-1
4.989290645E0,2.598600090E-2,-1.964399964E-2,-1.528539956E-1,1.562866051E-1
4.993234338E0,2.598600090E-2,-1.964399964E-2,-1.528539956E-1,1.562866051E-1
4.997177953E0,2.598600090E-2,-1.964399964E-2,-1.528539956E-1,1.562866051E-1
5.001121707E0,2.732500061E-2,-5.115000065E-3,-1.666840017E-1,1.689863169E-1
5.005065630E0,2.732500061E-2,-5.115000065E-3,-1.666840017E-1,1.689863169E-1
5.009009015E0,2.732500061E-2,-5.115000065E-3,-1.666840017E-1,1.689863169E-1
5.012952472E0,2.732500061E-2,-5.115000065E-3,-1.666840017E-1,1.689863169E-1
5.016895856E0,2.732500061E-2,-5.115000065E-3,-1.666840017E-1,1.689863169E-1
5.020839241E0,8.224999905E-2,-4.506500065E-2,-1.942130029E-1,2.156724533E-1
5.024782294E0,8.224999905E-2,-4.506500065E-2,-1.942130029E-1,2.156724533E-1
5.028725294E0,8.224999905E-2,-4.506500065E-2,-1.942130029E-1,2.156724533E-1
5.032668678E0,8.224999905E-2,-4.506500065E-2,-1.942130029E-1,2.156724533E-1
5.036611842E0,8.224999905E-2,-4.506500065E-2,-1.942130029E-1,2.156724533E-1
5.040555765E0,1.096540019E-1,-9.879100323E-2,-2.080900073E-1,2.551178426E-1
5.044499458E0,1.096540019E-1,-9.879100323E-2,-2.080900073E-1,2.551178426E-1
5.048443179E0,1.096540019E-1,-9.879100323E-2,-2.080900073E-1,2.551178426E-1
5.052386025E0,1.096540019E-1,-9.879100323E-2,-2.080900073E-1,2.551178426E-1
5.056329410E0,1.096540019E-1,-9.879100323E-2,-2.080900073E-1,2.551178426E-1
5.060272741E0,-1.270399988E-2,-9.826599807E-2,-2.354979962E-1,2.554934524E-1
5.064216203E0,-1.270399988E-2,-9.826599807E-2,-2.354979962E-1,2.554934524E-1
5.068159511E0,-1.270399988E-2,-9.826599807E-2,-2.354979962E-1,2.554934524E-1
5.072102895E0,-1.270399988E-2,-9.826599807E-2,-2.354979962E-1,2.554934524E-1
5.076046049E0,-1.270399988E-2,-9.826599807E-2,-2.354979962E-1,2.554934524E-1
5.079989665E0,2.849799953E-2,-9.785600007E-2,-7.217100263E-2,1.248862937E-1
5.083932794E0,2.849799953E-2,-9.785600007E-2,-7.217100263E-2,1.248862937E-1
5.087876717E0,2.849799953E-2,-9.785600007E-2,-7.217100263E-2,1.248862937E-1
5.091820179E0,2.849799953E-2,-9.785600007E-2,-7.217100263E-2,1.248862937E-1
5.095763261E0,2.849799953E-2,-9.785600007E-2,-7.217100263E-2,1.248862937E-1
5.099706876E0,1.105189994E-1,-1.518909931E-1,-5.868599936E-2,1.967977885E-1
5.103649723E0,1.105189994E-1,-1.518909931E-1,-5.868599936E-2,1.967977885E-1
5.107593102E0,1.105189994E-1,-1.518909931E-1,-5.868599936E-2,1.967977885E-1
5.111536102E0,1.105189994E-1,-1.518909931E-1,-5.868599936E-2,1.967977885E-1
5.115479256E0,1.105189994E-1,-1.518909931E-1,-5.868599936E-2,1.967977885E-1
5.119422564E0,-2.558900043E-2,-1.104149967E-1,-3.165699914E-2,1.176793697E-1
5.123366333E0,-2.558900043E-2,-1.104149967E-1,-3.165699914E-2,1.176793697E-1
5.127310564E0,-2.558900043E-2,-1.104149967E-1,-3.165699914E-2,1.176793697E-1
5.131253944E0,-2.558900043E-2,-1.104149967E-1,-3.165699914E-2,1.176793697E-1
5.135197406E0,-2.558900043E-2,-1.104149967E-1,-3.165699914E-2,1.176793697E-1
5.139141329E0,-5.311600119E-2,-6.868699938E-2,-5.923200026E-2,1.051077700E-1
5.143085117E0,-5.311600119E-2,-6.868699938E-2,-5.923200026E-2,1.051077700E-1
5.147028810E0,-5.311600119E-2,-6.868699938E-2,-5.923200026E-2,1.051077700E-1
5.150972189E0,-5.311600119E-2,-6.868699938E-2,-5.923200026E-2,1.051077700E-1
5.154915497E0,-5.311600119E-2,-6.868699938E-2,-5.923200026E-2,1.051077700E-1
5.158858651E0,-1.283499971E-2,-4.040800035E-2,-1.686179936E-1,1.738665335E-1
5.162801651E0,-1.283499971E-2,-4.040800035E-2,-1.686179936E-1,1.738665335E-1
5.166744742E0,-1.283499971E-2,-4.040800035E-2,-1.686179936E-1,1.738665335E-1
5.170688434E0,-1.283499971E-2,-4.040800035E-2,-1.686179936E-1,1.738665335E-1
5.174631896E0,-1.283499971E-2,-4.040800035E-2,-1.686179936E-1,1.738665335E-1
5.178575584E0,-5.430699885E-2,-1.213300042E-2,-1.690399945E-1,1.779634220E-1
5.182519276E0,-5.430699885E-2,-1.213300042E-2,-1.690399945E-1,1.779634220E-1
5.186463199E0,-5.430699885E-2,-1.213300042E-2,-1.690399945E-1,1.779634220E-1
5.190406685E0,-5.430699885E-2,-1.213300042E-2,-1.690399945E-1,1.779634220E-1
5.194350685E0,-5.430699885E-2,-1.213300042E-2,-1.690399945E-1,1.779634220E-1
5.198294608E0,1.322100032E-2,-6.556600332E-2,-1.694650054E-1,1.821869471E-1
5.202238381E0,1.322100032E-2,-6.556600332E-2,-1.694650054E-1,1.821869471E-1
5.206182381E0,1.322100032E-2,-6.556600332E-2,-1.694650054E-1,1.821869471E-1
5.210126073E0,1.322100032E-2,-6.556600332E-2,-1.694650054E-1,1.821869471E-1
5.214069170E0,1.322100032E-2,-6.556600332E-2,-1.694650054E-1,1.821869471E-1
5.218012170E0,2.630399913E-2,-9.143199772E-2,-1.155230030E-1,1.496571910E-1
5.221955632E0,2.630399913E-2,-9.143199772E-2,-1.155230030E-1,1.496571910E-1
5.225899247E0,2.630399913E-2,-9.143199772E-2,-1.155230030E-1,1.496571910E-1
5.229842940E0,2.630399913E-2,-9.143199772E-2,-1.155230030E-1,1.496571910E-1
5.233786324E0,2.630399913E-2,-9.143199772E-2,-1.155230030E-1,1.496571910E-1
5.237729746E0,-1.101690009E-1,-8.143000305E-3,-1.024880037E-1,1.506894426E-1
5.241673438E0,-1.101690009E-1,-8.143000305E-3,-1.024880037E-1,1.506894426E-1
5.245616823E0,-1.101690009E-1,-8.143000305E-3,-1.024880037E-1,1.506894426E-1
5.249559895E0,-1.101690009E-1,-8.143000305E-3,-1.024880037E-1,1.506894426E-1
5.253503510E0,-1.101690009E-1,-8.143000305E-3,-1.024880037E-1,1.506894426E-1
5.257446664E0,-1.101690009E-1,-8.143000305E-3,-1.024880037E-1,1.506894426E-1
5.261389963E0,-2.852299996E-2,-6.098200008E-2,-1.575649977E-1,1.713449572E-1
5.265333347E0,-2.852299996E-2,-6.098200008E-2,-1.575649977E-1,1.713449572E-1
5.269276732E0,-2.852299996E-2,-6.098200008E-2,-1.575649977E-1,1.713449572E-1
5.273219905E0,-2.852299996E-2,-6.098200008E-2,-1.575649977E-1,1.713449572E-1
5.277163212E0,-2.852299996E-2,-6.098200008E-2,-1.575649977E-1,1.713449572E-1
5.281106674E0,8.041899651E-2,-4.591500014E-2,-1.308439970E-1,1.602983275E-1
5.285050059E0,8.041899651E-2,-4.591500014E-2,-1.308439970E-1,1.602983275E-1
5.288993366E0,8.041899651E-2,-4.591500014E-2,-1.308439970E-1,1.602983275E-1
5.292936443E0,8.041899651E-2,-4.591500014E-2,-1.308439970E-1,1.602983275E-1
5.296879606E0,8.041899651E-2,-4.591500014E-2,-1.308439970E-1,1.602983275E-1
5.300822683E0,2.029789984E-1,-9.906399995E-2,-3.492510021E-1,4.159211612E-1
5.304765452E0,2.029789984E-1,-9.906399995E-2,-3.492510021E-1,4.159211612E-1
5.308708751E0,2.029789984E-1,-9.906399995E-2,-3.492510021E-1,4.159211612E-1
5.312651828E0,2.029789984E-1,-9.906399995E-2,-3.492510021E-1,4.159211612E-1
5.316594905E0,2.029789984E-1,-9.906399995E-2,-3.492510021E-1,4.159211612E-1
5.320538284E0,8.033800125E-2,-9.783799946E-2,-2.407349944E-1,2.719922905E-1
5.324481669E0,8.033800125E-2,-9.783799946E-2,-2.407349944E-1,2.719922905E-1
5.328424823E0,8.033800125E-2,-9.783799946E-2,-2.407349944E-1,2.719922905E-1
5.332368193E0,8.033800125E-2,-9.783799946E-2,-2.407349944E-1,2.719922905E-1
5.336312116E0,8.033800125E-2,-9.783799946E-2,-2.407349944E-1,2.719922905E-1
5.340255500E0,3.943999857E-2,-1.240160018E-1,-9.575000033E-3,1.304881712E-1
5.344199261E0,3.943999857E-2,-1.240160018E-1,-9.575000033E-3,1.304881712E-1
5.348143184E0,3.943999857E-2,-1.240160018E-1,-9.575000033E-3,1.304881712E-1
5.352087184E0,3.943999857E-2,-1.240160018E-1,-9.575000033E-3,1.304881712E-1
5.356031164E0,3.943999857E-2,-1.240160018E-1,-9.575000033E-3,1.304881712E-1
5.359975241E0,1.210339963E-1,-1.501789987E-1,7.174900174E-2,2.057932923E-1
5.363918625E0,1.210339963E-1,-1.501789987E-1,7.174900174E-2,2.057932923E-1
5.367861924E0,1.210339963E-1,-1.501789987E-1,7.174900174E-2,2.057932923E-1
5.371805616E0,1.210339963E-1,-1.501789987E-1,7.174900174E-2,2.057932923E-1
5.375749385E0,1.210339963E-1,-1.501789987E-1,7.174900174E-2,2.057932923E-1
5.379692433E0,1.194700040E-2,-9.462700039E-2,-1.329530030E-1,1.636261013E-1
5.383636049E0,1.194700040E-2,-9.462700039E-2,-1.329530030E-1,1.636261013E-1
5.387579510E0,1.194700040E-2,-9.462700039E-2,-1.329530030E-1,1.636261013E-1
5.391522813E0,1.194700040E-2,-9.462700039E-2,-1.329530030E-1,1.636261013E-1
5.395466198E0,1.194700040E-2,-9.462700039E-2,-1.329530030E-1,1.636261013E-1
5.399409890E0,-5.645800009E-2,-5.267800018E-2,-6.526800245E-2,1.011058338E-1
5.403353885E0,-5.645800009E-2,-5.267800018E-2,-6.526800245E-2,1.011058338E-1
5.407297654E0,-5.645800009E-2,-5.267800018E-2,-6.526800245E-2,1.011058338E-1
5.411241347E0,-5.645800009E-2,-5.267800018E-2,-6.526800245E-2,1.011058338E-1
5.415185270E0,-5.645800009E-2,-5.267800018E-2,-6.526800245E-2,1.011058338E-1
5.419128423E0,-2.989500016E-2,-3.789199889E-2,-1.202280000E-1,1.295541840E-1
5.423072039E0,-2.989500016E-2,-3.789199889E-2,-1.202280000E-1,1.295541840E-1
5.427015516E0,-2.989500016E-2,-3.789199889E-2,-1.202280000E-1,1.295541840E-1
5.430959132E0,-2.989500016E-2,-3.789199889E-2,-1.202280000E-1,1.295541840E-1
5.434902901E0,-2.989500016E-2,-3.789199889E-2,-1.202280000E-1,1.295541840E-1
5.438846915E0,-1.719100028E-2,4.120000172E-3,-1.752039939E-1,1.760935671E-1
5.442790915E0,-1.719100028E-2,4.120000172E-3,-1.752039939E-1,1.760935671E-1
5.446734838E0,-1.719100028E-2,4.120000172E-3,-1.752039939E-1,1.760935671E-1
5.450678015E0,-1.719100028E-2,4.120000172E-3,-1.752039939E-1,1.760935671E-1
5.454621092E0,-1.719100028E-2,4.120000172E-3,-1.752039939E-1,1.760935671E-1
5.458564092E0,9.087000042E-3,-3.570900112E-2,-2.028989941E-1,2.062176232E-1
5.462507232E0,9.087000042E-3,-3.570900112E-2,-2.028989941E-1,2.062176232E-1
5.466450232E0,9.087000042E-3,-3.570900112E-2,-2.028989941E-1,2.062176232E-1
5.470393386E0,9.087000042E-3,-3.570900112E-2,-2.028989941E-1,2.062176232E-1
5.474336766E0,9.087000042E-3,-3.570900112E-2,-2.028989941E-1,2.062176232E-1
5.478280074E0,2.118000016E-2,-4.835399985E-2,-1.761409938E-1,1.838813515E-1
5.482223228E0,2.118000016E-2,-4.835399985E-2,-1.761409938E-1,1.838813515E-1
5.486166223E0,2.118000016E-2,-4.835399985E-2,-1.761409938E-1,1.838813515E-1
5.490108761E0,2.118000016E-2,-4.835399985E-2,-1.761409938E-1,1.838813515E-1
5.494051838E0,2.118000016E-2,-4.835399985E-2,-1.761409938E-1,1.838813515E-1
5.497995174E0,7.336600125E-2,-1.289220005E-1,-4.055299982E-2,1.537790563E-1
5.501937943E0,7.336600125E-2,-1.289220005E-1,-4.055299982E-2,1.537790563E-1
5.505880097E0,7.336600125E-2,-1.289220005E-1,-4.055299982E-2,1.537790563E-1
5.509822875E0,7.336600125E-2,-1.289220005E-1,-4.055299982E-2,1.537790563E-1
5.513765337E0,7.336600125E-2,-1.289220005E-1,-4.055299982E-2,1.537790563E-1
5.517708491E0,9.808299690E-2,-8.664800227E-2,-1.093849987E-1,1.705673724E-1
5.521652116E0,9.808299690E-2,-8.664800227E-2,-1.093849987E-1,1.705673724E-1
5.525595270E0,9.808299690E-2,-8.664800227E-2,-1.093849987E-1,1.705673724E-1
5.529539193E0,9.808299690E-2,-8.664800227E-2,-1.093849987E-1,1.705673724E-1
5.533482866E0,9.808299690E-2,-8.664800227E-2,-1.093849987E-1,1.705673724E-1
5.537426328E0,6.882999837E-2,-7.134699821E-2,-2.055090070E-1,2.281708018E-1
5.541369713E0,6.882999837E-2,-7.134699821E-2,-2.055090070E-1,2.281708018E-1
5.545313121E0,6.882999837E-2,-7.134699821E-2,-2.055090070E-1,2.281708018E-1
5.549284793E0,6.882999837E-2,-7.134699821E-2,-2.055090070E-1,2.281708018E-1
5.553256430E0,6.882999837E-2,-7.134699821E-2,-2.055090070E-1,2.281708018E-1
5.557143174E0,1.274599973E-2,-8.304200321E-2,-1.246230006E-1,1.502974620E-1
5.561086559E0,1.274599973E-2,-8.304200321E-2,-1.246230006E-1,1.502974620E-1
5.565029636E0,1.274599973E-2,-8.304200321E-2,-1.246230006E-1,1.502974620E-1
5.568973020E0,1.274599973E-2,-8.304200321E-2,-1.246230006E-1,1.502974620E-1
5.572916405E0,1.274599973E-2,-8.304200321E-2,-1.246230006E-1,1.502974620E-1
5.576859251E0,1.274599973E-2,-8.304200321E-2,-1.246230006E-1,1.502974620E-1
5.580802313E0,1.140500046E-2,-2.671200037E-2,-1.644599997E-2,3.337777575E-2
5.584745621E0,1.140500046E-2,-2.671200037E-2,-1.644599997E-2,3.337777575E-2
5.588688698E0,1.140500046E-2,-2.671200037E-2,-1.644599997E-2,3.337777575E-2
5.592631549E0,1.140500046E-2,-2.671200037E-2,-1.644599997E-2,3.337777575E-2
5.596574626E0,1.140500046E-2,-2.671200037E-2,-1.644599997E-2,3.337777575E-2
5.600518010E0,-4.408499971E-2,1.561100036E-2,-3.068399988E-2,5.593476898E-2
5.604461938E0,-4.408499971E-2,1.561100036E-2,-3.068399988E-2,5.593476898E-2
5.608405323E0,-4.408499971E-2,1.561100036E-2,-3.068399988E-2,5.593476898E-2
5.612348785E0,-4.408499971E-2,1.561100036E-2,-3.068399988E-2,5.593476898E-2
5.616292410E0,-4.408499971E-2,1.561100036E-2,-3.068399988E-2,5.593476898E-2
5.620235795E0,-1.129520014E-1,-3.768600151E-2,-1.673839986E-1,2.054161443E-1
5.624179256E0,-1.129520014E-1,-3.768600151E-2,-1.673839986E-1,2.054161443E-1
5.628122632E0,-1.129520014E-1,-3.768600151E-2,-1.673839986E-1,2.054161443E-1
5.632065940E0,-1.129520014E-1,-3.768600151E-2,-1.673839986E-1,2.054161443E-1
5.636009324E0,-1.129520014E-1,-3.768600151E-2,-1.673839986E-1,2.054161443E-1
5.639952694E0,1.452340037E-1,-1.728689969E-1,-1.814260036E-1,2.896411584E-1
5.643895463E0,1.452340037E-1,-1.728689969E-1,-1.814260036E-1,2.896411584E-1
5.647838232E0,1.452340037E-1,-1.728689969E-1,-1.814260036E-1,2.896411584E-1
5.651781391E0,1.452340037E-1,-1.728689969E-1,-1.814260036E-1,2.896411584E-1
5.655724468E0,1.989080012E-1,-1.175120026E-1,-1.137119979E-1,2.574954022E-1
5.659667853E0,1.989080012E-1,-1.175120026E-1,-1.137119979E-1,2.574954022E-1
5.663611160E0,1.989080012E-1,-1.175120026E-1,-1.137119979E-1,2.574954022E-1
5.667554237E0,1.989080012E-1,-1.175120026E-1,-1.137119979E-1,2.574954022E-1
5.671497930E0,1.989080012E-1,-1.175120026E-1,-1.137119979E-1,2.574954022E-1
5.675441093E0,1.989080012E-1,-1.175120026E-1,-1.137119979E-1,2.574954022E-1
5.679385017E0,-7.436300069E-2,7.393900305E-2,-1.821680069E-1,2.101951826E-1
5.683329094E0,-7.436300069E-2,7.393900305E-2,-1.821680069E-1,2.101951826E-1
5.687273079E0,-7.436300069E-2,7.393900305E-2,-1.821680069E-1,2.101951826E-1
5.691216463E0,-7.436300069E-2,7.393900305E-2,-1.821680069E-1,2.101951826E-1
5.695160386E0,-7.436300069E-2,7.393900305E-2,-1.821680069E-1,2.101951826E-1
5.699104160E0,6.550999824E-3,3.366899863E-2,-2.096949965E-1,2.124817842E-1
5.703048160E0,6.550999824E-3,3.366899863E-2,-2.096949965E-1,2.124817842E-1
5.706991853E0,6.550999824E-3,3.366899863E-2,-2.096949965E-1,2.124817842E-1
5.710934627E0,6.550999824E-3,3.366899863E-2,-2.096949965E-1,2.124817842E-1
5.714878012E0,6.550999824E-3,3.366899863E-2,-2.096949965E-1,2.124817842E-1
5.718821089E0,-8.950500190E-2,-6.879999768E-3,-2.234909981E-1,2.408458138E-1
5.722764113E0,-8.950500190E-2,-6.879999768E-3,-2.234909981E-1,2.408458138E-1
5.726707497E0,-8.950500190E-2,-6.879999768E-3,-2.234909981E-1,2.408458138E-1
5.730650574E0,-8.950500190E-2,-6.879999768E-3,-2.234909981E-1,2.408458138E-1
5.734594031E0,-8.950500190E-2,-6.879999768E-3,-2.234909981E-1,2.408458138E-1
5.738537646E0,8.692400157E-2,-1.294469982E-1,-1.282110065E-1,2.018672078E-1
5.742481031E0,8.692400157E-2,-1.294469982E-1,-1.282110065E-1,2.018672078E-1
5.746424439E0,8.692400157E-2,-1.294469982E-1,-1.282110065E-1,2.018672078E-1
5.750368747E0,8.692400157E-2,-1.294469982E-1,-1.282110065E-1,2.018672078E-1
5.754312439E0,8.692400157E-2,-1.294469982E-1,-1.282110065E-1,2.018672078E-1
5.758256151E0,1.406850070E-1,-1.567350030E-1,-1.146359965E-1,2.397906254E-1
5.762199612E0,1.406850070E-1,-1.567350030E-1,-1.146359965E-1,2.397906254E-1
5.766142689E0,1.406850070E-1,-1.567350030E-1,-1.146359965E-1,2.397906254E-1
5.770085997E0,1.406850070E-1,-1.567350030E-1,-1.146359965E-1,2.397906254E-1
5.774029689E0,1.406850070E-1,-1.567350030E-1,-1.146359965E-1,2.397906254E-1
5.777973074E0,4.451600090E-2,-1.022439972E-1,-1.283330023E-1,1.700143193E-1
5.781916151E0,4.451600090E-2,-1.022439972E-1,-1.283330023E-1,1.700143193E-1
5.785859305E0,4.451600090E-2,-1.022439972E-1,-1.283330023E-1,1.700143193E-1
5.789802920E0,4.451600090E-2,-1.022439972E-1,-1.283330023E-1,1.700143193E-1
5.793746305E0,4.451600090E-2,-1.022439972E-1,-1.283330023E-1,1.700143193E-1
5.797689689E0,1.633399911E-2,-7.489199936E-2,-3.311400115E-2,8.349939023E-2
5.801633151E0,1.633399911E-2,-7.489199936E-2,-3.311400115E-2,8.349939023E-2
5.805576458E0,1.633399911E-2,-7.489199936E-2,-3.311400115E-2,8.349939023E-2
5.809520459E0,1.633399911E-2,-7.489199936E-2,-3.311400115E-2,8.349939023E-2
5.813463612E0,1.633399911E-2,-7.489199936E-2,-3.311400115E-2,8.349939023E-2
5.817407247E0,1.633399911E-2,-7.489199936E-2,-3.311400115E-2,8.349939023E-2
5.821350631E0,-7.972099632E-2,-3.384799883E-2,-8.772499859E-2,1.232753003E-1
5.825294016E0,-7.972099632E-2,-3.384799883E-2,-8.772499859E-2,1.232753003E-1
5.829237718E0,-7.972099632E-2,-3.384799883E-2,-8.772499859E-2,1.232753003E-1
5.833181180E0,-7.972099632E-2,-3.384799883E-2,-8.772499859E-2,1.232753003E-1
5.837125411E0,-7.972099632E-2,-3.384799883E-2,-8.772499859E-2,1.232753003E-1
5.841069112E0,-5.306199938E-2,-6.322000176E-3,-1.151209995E-1,1.269188244E-1
5.845012804E0,-5.306199938E-2,-6.322000176E-3,-1.151209995E-1,1.269188244E-1
5.848955958E0,-5.306199938E-2,-6.322000176E-3,-1.151209995E-1,1.269188244E-1
5.852899348E0,-5.306199938E-2,-6.322000176E-3,-1.151209995E-1,1.269188244E-1
5.856842963E0,-5.306199938E-2,-6.322000176E-3,-1.151209995E-1,1.269188244E-1
5.860786348E0,1.775999963E-1,-6.043099985E-2,-2.515380085E-1,3.137913863E-1
5.864729507E0,1.775999963E-1,-6.043099985E-2,-2.515380085E-1,3.137913863E-1
5.868673199E0,1.775999963E-1,-6.043099985E-2,-2.515380085E-1,3.137913863E-1
5.872617122E0,1.775999963E-1,-6.043099985E-2,-2.515380085E-1,3.137913863E-1
5.876560276E0,1.775999963E-1,-6.043099985E-2,-2.515380085E-1,3.137913863E-1
5.880503661E0,4.041299969E-2,-3.313900158E-2,-3.606069982E-1,3.643745479E-1
5.884447045E0,4.041299969E-2,-3.313900158E-2,-3.606069982E-1,3.643745479E-1
5.888390963E0,4.041299969E-2,-3.313900158E-2,-3.606069982E-1,3.643745479E-1
5.892334348E0,4.041299969E-2,-3.313900158E-2,-3.606069982E-1,3.643745479E-1
5.896277732E0,4.041299969E-2,-3.313900158E-2,-3.606069982E-1,3.643745479E-1
5.900221175E0,1.241299976E-2,-1.151240021E-1,-2.652370036E-1,2.894102391E-1
5.904164790E0,1.241299976E-2,-1.151240021E-1,-2.652370036E-1,2.894102391E-1
5.908108560E0,1.241299976E-2,-1.151240021E-1,-2.652370036E-1,2.894102391E-1
5.912052564E0,1.241299976E-2,-1.151240021E-1,-2.652370036E-1,2.894102391E-1
5.915996487E0,1.241299976E-2,-1.151240021E-1,-2.652370036E-1,2.894102391E-1
5.919940487E0,3.897000104E-2,-1.014600024E-1,-8.824899793E-2,1.400024239E-1
5.923883948E0,3.897000104E-2,-1.014600024E-1,-8.824899793E-2,1.400024239E-1
5.927827871E0,3.897000104E-2,-1.014600024E-1,-8.824899793E-2,1.400024239E-1
5.931771333E0,3.897000104E-2,-1.014600024E-1,-8.824899793E-2,1.400024239E-1
5.935714958E0,3.897000104E-2,-1.014600024E-1,-8.824899793E-2,1.400024239E-1
5.939658958E0,-4.329499975E-2,-7.367800176E-2,-7.487399876E-2,1.136178711E-1
5.943603035E0,-4.329499975E-2,-7.367800176E-2,-7.487399876E-2,1.136178711E-1
5.947546343E0,-4.329499975E-2,-7.367800176E-2,-7.487399876E-2,1.136178711E-1
5.951489805E0,-4.329499975E-2,-7.367800176E-2,-7.487399876E-2,1.136178711E-1
5.955433112E0,-4.329499975E-2,-7.367800176E-2,-7.487399876E-2,1.136178711E-1
5.959376194E0,-1.667900011E-2,-5.885199830E-2,-2.088600025E-2,6.463723195E-2
5.963319271E0,-1.667900011E-2,-5.885199830E-2,-2.088600025E-2,6.463723195E-2
5.967262040E0,-1.667900011E-2,-5.885199830E-2,-2.088600025E-2,6.463723195E-2
5.971205208E0,-1.667900011E-2,-5.885199830E-2,-2.088600025E-2,6.463723195E-2
5.975148901E0,-1.667900011E-2,-5.885199830E-2,-2.088600025E-2,6.463723195E-2
5.979092208E0,-8.530700207E-2,-3.044899926E-2,-1.711769998E-1,1.936646365E-1
5.983035636E0,-8.530700207E-2,-3.044899926E-2,-1.711769998E-1,1.936646365E-1
5.986978713E0,-8.530700207E-2,-3.044899926E-2,-1.711769998E-1,1.936646365E-1
5.990922328E0,-8.530700207E-2,-3.044899926E-2,-1.711769998E-1,1.936646365E-1
5.994866020E0,-8.530700207E-2,-3.044899926E-2,-1.711769998E-1,1.936646365E-1
5.998809790E0,-5.855099857E-2,-1.593899913E-2,-1.851640046E-1,1.948537393E-1
6.002753713E0,-5.855099857E-2,-1.593899913E-2,-1.851640046E-1,1.948537393E-1
6.006696848E0,-5.855099857E-2,-1.593899913E-2,-1.851640046E-1,1.948537393E-1
6.010640232E0,-5.855099857E-2,-1.593899913E-2,-1.851640046E-1,1.948537393E-1
6.014583540E0,-5.855099857E-2,-1.593899913E-2,-1.851640046E-1,1.948537393E-1
6.018526930E0,-4.490000010E-2,-1.526600029E-2,-7.644300163E-2,8.995884210E-2
6.022470622E0,-4.490000010E-2,-1.526600029E-2,-7.644300163E-2,8.995884210E-2
6.026414314E0,-4.490000010E-2,-1.526600029E-2,-7.644300163E-2,8.995884210E-2
6.030357781E0,-4.490000010E-2,-1.526600029E-2,-7.644300163E-2,8.995884210E-2
6.034301473E0,-4.490000010E-2,-1.526600029E-2,-7.644300163E-2,8.995884210E-2
6.038245165E0,-8.481899649E-2,-1.153000048E-3,-1.173989996E-1,1.448382432E-1
6.042188853E0,-8.481899649E-2,-1.153000048E-3,-1.173989996E-1,1.448382432E-1
6.046132160E0,-8.481899649E-2,-1.153000048E-3,-1.173989996E-1,1.448382432E-1
6.050075545E0,-8.481899649E-2,-1.153000048E-3,-1.173989996E-1,1.448382432E-1
6.054018699E0,-8.481899649E-2,-1.153000048E-3,-1.173989996E-1,1.448382432E-1
6.057961776E0,-1.716000028E-3,-6.884399801E-2,-1.446660012E-1,1.602207621E-1
6.061904776E0,-1.716000028E-3,-6.884399801E-2,-1.446660012E-1,1.602207621E-1
6.065847940E0,-1.716000028E-3,-6.884399801E-2,-1.446660012E-1,1.602207621E-1
6.069791247E0,-1.716000028E-3,-6.884399801E-2,-1.446660012E-1,1.602207621E-1
6.073734632E0,-1.716000028E-3,-6.884399801E-2,-1.446660012E-1,1.602207621E-1
6.077678324E0,8.121600002E-2,-6.857000291E-2,-7.655599713E-2,1.309912389E-1
6.081621170E0,8.121600002E-2,-6.857000291E-2,-7.655599713E-2,1.309912389E-1
6.085564247E0,8.121600002E-2,-6.857000291E-2,-7.655599713E-2,1.309912389E-1
6.089507555E0,8.121600002E-2,-6.857000291E-2,-7.655599713E-2,1.309912389E-1
6.093451017E0,8.121600002E-2,-6.857000291E-2,-7.655599713E-2,1.309912389E-1
6.097393786E0,8.121600002E-2,-6.857000291E-2,-7.655599713E-2,1.309912389E-1
6.101336800E0,8.262400329E-2,-1.092130020E-1,-1.854719967E-1,2.305516586E-1
6.105280185E0,8.262400329E-2,-1.092130020E-1,-1.854719967E-1,2.305516586E-1
6.109223031E0,8.262400329E-2,-1.092130020E-1,-1.854719967E-1,2.305516586E-1
6.113166632E0,8.262400329E-2,-1.092130020E-1,-1.854719967E-1,2.305516586E-1
6.117110324E0,8.262400329E-2,-1.092130020E-1,-1.854719967E-1,2.305516586E-1
6.121053709E0,8.390499651E-2,-9.522899985E-2,-2.263509929E-1,2.595060362E-1
6.124997463E0,8.390499651E-2,-9.522899985E-2,-2.263509929E-1,2.595060362E-1
6.128941079E0,8.390499651E-2,-9.522899985E-2,-2.263509929E-1,2.595060362E-1
6.132884233E0,8.390499651E-2,-9.522899985E-2,-2.263509929E-1,2.595060362E-1
6.136828444E0,8.390499651E-2,-9.522899985E-2,-2.263509929E-1,2.595060362E-1
6.140771829E0,-5.089800060E-2,-9.476199746E-2,-2.127770036E-1,2.384208378E-1
6.144715521E0,-5.089800060E-2,-9.476199746E-2,-2.127770036E-1,2.384208378E-1
6.148658901E0,-5.089800060E-2,-9.476199746E-2,-2.127770036E-1,2.384208378E-1
6.152602285E0,-5.089800060E-2,-9.476199746E-2,-2.127770036E-1,2.384208378E-1
6.156545670E0,-5.089800060E-2,-9.476199746E-2,-2.127770036E-1,2.384208378E-1
6.160488747E0,-7.631400228E-2,-6.700000167E-2,-9.022100270E-2,1.358405554E-1
6.164431882E0,-7.631400228E-2,-6.700000167E-2,-9.022100270E-2,1.358405554E-1
6.168375497E0,-7.631400228E-2,-6.700000167E-2,-9.022100270E-2,1.358405554E-1
6.172318574E0,-7.631400228E-2,-6.700000167E-2,-9.022100270E-2,1.358405554E-1
6.176261988E0,-7.631400228E-2,-6.700000167E-2,-9.022100270E-2,1.358405554E-1
6.180205065E0,-6.440999918E-3,-6.641899794E-2,-3.579400107E-2,7.572437045E-2
6.184148526E0,-6.440999918E-3,-6.641899794E-2,-3.579400107E-2,7.572437045E-2
6.188092218E0,-6.440999918E-3,-6.641899794E-2,-3.579400107E-2,7.572437045E-2
6.192035525E0,-6.440999918E-3,-6.641899794E-2,-3.579400107E-2,7.572437045E-2
6.195978679E0,-6.440999918E-3,-6.641899794E-2,-3.579400107E-2,7.572437045E-2
6.199921997E0,-4.546200112E-2,-5.226900056E-2,-1.175479963E-1,1.364418316E-1
6.203865382E0,-4.546200112E-2,-5.226900056E-2,-1.175479963E-1,1.364418316E-1
6.207809074E0,-4.546200112E-2,-5.226900056E-2,-1.175479963E-1,1.364418316E-1
6.211752458E0,-4.546200112E-2,-5.226900056E-2,-1.175479963E-1,1.364418316E-1
6.215695535E0,-4.546200112E-2,-5.226900056E-2,-1.175479963E-1,1.364418316E-1
