"Time (s)","Linear Acceleration x (m/s^2)","Linear Acceleration y (m/s^2)","Linear Acceleration z (m/s^2)","Absolute acceleration (m/s^2)"
0.000000000E0,-1.383530051E-1,4.849939942E-1,1.548969030E0,1.629007608E0
0.000000000E0,-1.383530051E-1,4.849939942E-1,1.548969030E0,1.629007608E0
0.000000000E0,-1.383530051E-1,4.849939942E-1,1.548969030E0,1.629007608E0
0.000000000E0,-1.383530051E-1,4.849939942E-1,1.548969030E0,1.629007608E0
0.000000000E0,-1.383530051E-1,4.849939942E-1,1.548969030E0,1.629007608E0
0.000000000E0,-1.383530051E-1,4.849939942E-1,1.548969030E0,1.629007608E0
0.000000000E0,-1.383530051E-1,4.849939942E-1,1.548969030E0,1.629007608E0
0.000000000E0,-1.383530051E-1,4.849939942E-1,1.548969030E0,1.629007608E0
0.000000000E0,-1.383530051E-1,4.849939942E-1,1.548969030E0,1.629007608E0
0.000000000E0,-1.383530051E-1,4.849939942E-1,1.548969030E0,1.629007608E0
2.876548800E-2,-1.383530051E-1,4.849939942E-1,1.548969030E0,1.629007608E0
3.270540800E-2,-1.383530051E-1,4.849939942E-1,1.548969030E0,1.629007608E0
3.664671500E-2,-1.383530051E-1,4.849939942E-1,1.548969030E0,1.629007608E0
4.058639400E-2,-1.383530051E-1,4.849939942E-1,1.548969030E0,1.629007608E0
4.452577800E-2,-1.383530051E-1,4.849939942E-1,1.548969030E0,1.629007608E0
4.846570100E-2,-1.383530051E-1,4.849939942E-1,1.548969030E0,1.629007608E0
5.240446000E-2,-1.383530051E-1,4.849939942E-1,1.548969030E0,1.629007608E0
5.634361400E-2,-1.383530051E-1,4.849939942E-1,1.548969030E0,1.629007608E0
6.028322900E-2,-1.383530051E-1,4.849939942E-1,1.548969030E0,1.629007608E0
6.422299800E-2,-1.383530051E-1,4.849939942E-1,1.548969030E0,1.629007608E0
6.816269100E-2,3.286156893E0,3.840200901E0,2.991785049E0,5.873393216E0
7.210207500E-2,3.286156893E0,3.840200901E0,2.991785049E0,5.873393216E0
7.604175200E-2,3.286156893E0,3.840200901E0,2.991785049E0,5.873393216E0
7.998136800E-2,3.286156893E0,3.840200901E0,2.991785049E0,5.873393216E0
8.392075200E-2,3.286156893E0,3.840200901E0,2.991785049E0,5.873393216E0
8.786023800E-2,2.622198105E0,2.089711905E0,2.433769941E0,4.143193801E0
9.179993000E-2,2.622198105E0,2.089711905E0,2.433769941E0,4.143193801E0
9.573962300E-2,2.622198105E0,2.089711905E0,2.433769941E0,4.143193801E0
9.967899200E-2,2.622198105E0,2.089711905E0,2.433769941E0,4.143193801E0
1.036189150E-1,2.622198105E0,2.089711905E0,2.433769941E0,4.143193801E0
1.075589150E-1,1.645141006E0,7.787089944E-1,2.972733974E0,3.485688441E0
1.114982990E-1,1.645141006E0,7.787089944E-1,2.972733974E0,3.485688441E0
1.154386840E-1,1.645141006E0,7.787089944E-1,2.972733974E0,3.485688441E0
1.193786840E-1,1.645141006E0,7.787089944E-1,2.972733974E0,3.485688441E0
1.233189770E-1,1.645141006E0,7.787089944E-1,2.972733974E0,3.485688441E0
1.272592080E-1,1.645141006E0,7.787089944E-1,2.972733974E0,3.485688441E0
1.311989770E-1,-1.863834023E0,2.456890106E0,4.900409877E-1,3.122551270E0
1.351390050E-1,-1.863834023E0,2.456890106E0,4.900409877E-1,3.122551270E0
1.390790050E-1,-1.863834023E0,2.456890106E0,4.900409877E-1,3.122551270E0
1.430174670E-1,-1.863834023E0,2.456890106E0,4.900409877E-1,3.122551270E0
1.469571400E-1,-1.863834023E0,2.456890106E0,4.900409877E-1,3.122551270E0
1.508967560E-1,-3.161902905E0,4.205083847E0,-1.739209056E0,5.541228048E0
1.548365250E-1,-3.161902905E0,4.205083847E0,-1.739209056E0,5.541228048E0
1.587755150E-1,-3.161902905E0,4.205083847E0,-1.739209056E0,5.541228048E0
1.627152840E-1,-3.161902905E0,4.205083847E0,-1.739209056E0,5.541228048E0
1.666555150E-1,-3.161902905E0,4.205083847E0,-1.739209056E0,5.541228048E0
1.705959240E-1,-3.406725883E0,5.620413780E0,-2.201040030E0,6.931046784E0
1.745373850E-1,-3.406725883E0,5.620413780E0,-2.201040030E0,6.931046784E0
1.784776930E-1,-3.406725883E0,5.620413780E0,-2.201040030E0,6.931046784E0
1.824192360E-1,-3.406725883E0,5.620413780E0,-2.201040030E0,6.931046784E0
1.863593130E-1,-3.406725883E0,5.620413780E0,-2.201040030E0,6.931046784E0
1.902993130E-1,-4.171948910E0,7.227265835E0,-8.716700226E-2,8.345425528E0
1.942389660E-1,-4.171948910E0,7.227265835E0,-8.716700226E-2,8.345425528E0
1.981792740E-1,-4.171948910E0,7.227265835E0,-8.716700226E-2,8.345425528E0
2.021195050E-1,-4.171948910E0,7.227265835E0,-8.716700226E-2,8.345425528E0
2.060592650E-1,-4.514793873E0,7.819118023E0,6.160600111E-2,9.029161958E0
2.099976500E-1,-4.514793873E0,7.819118023E0,6.160600111E-2,9.029161958E0
2.139368040E-1,-4.514793873E0,7.819118023E0,6.160600111E-2,9.029161958E0
2.178767940E-1,-4.514793873E0,7.819118023E0,6.160600111E-2,9.029161958E0
2.218164860E-1,-4.514793873E0,7.819118023E0,6.160600111E-2,9.029161958E0
2.257561780E-1,-4.514793873E0,7.819118023E0,6.160600111E-2,9.029161958E0
2.296965050E-1,-4.092940807E0,5.097013950E0,-3.269269943E0,7.308887851E0
2.336367360E-1,-4.092940807E0,5.097013950E0,-3.269269943E0,7.308887851E0
2.375768130E-1,-4.092940807E0,5.097013950E0,-3.269269943E0,7.308887851E0
2.415171300E-1,-4.092940807E0,5.097013950E0,-3.269269943E0,7.308887851E0
2.454574380E-1,-4.092940807E0,5.097013950E0,-3.269269943E0,7.308887851E0
2.493976690E-1,-3.882704020E0,1.653308988E0,-2.952783108E0,5.150509605E0
2.533380680E-1,-3.882704020E0,1.653308988E0,-2.952783108E0,5.150509605E0
2.572789140E-1,-3.882704020E0,1.653308988E0,-2.952783108E0,5.150509605E0
2.612196060E-1,-3.882704020E0,1.653308988E0,-2.952783108E0,5.150509605E0
2.651599190E-1,-3.882704020E0,1.653308988E0,-2.952783108E0,5.150509605E0
2.691004570E-1,-3.938494921E0,-5.638059974E-1,-3.825850964E0,5.519669831E0
2.730407650E-1,-3.938494921E0,-5.638059974E-1,-3.825850964E0,5.519669831E0
2.769805050E-1,-3.938494921E0,-5.638059974E-1,-3.825850964E0,5.519669831E0
2.809205050E-1,-3.938494921E0,-5.638059974E-1,-3.825850964E0,5.519669831E0
2.848601970E-1,-3.938494921E0,-5.638059974E-1,-3.825850964E0,5.519669831E0
2.888005250E-1,-3.772608042E0,-1.843701959E0,-4.350916862E0,6.046675607E0
2.927404480E-1,-3.772608042E0,-1.843701959E0,-4.350916862E0,6.046675607E0
2.966804480E-1,-3.772608042E0,-1.843701959E0,-4.350916862E0,6.046675607E0
3.006207610E-1,-3.772608042E0,-1.843701959E0,-4.350916862E0,6.046675607E0
3.045610690E-1,-3.772608042E0,-1.843701959E0,-4.350916862E0,6.046675607E0
3.085011460E-1,-3.435209990E0,-3.224621058E0,-3.880908966E0,6.104121807E0
3.124705160E-1,-3.435209990E0,-3.224621058E0,-3.880908966E0,6.104121807E0
3.164398430E-1,-3.435209990E0,-3.224621058E0,-3.880908966E0,6.104121807E0
3.203208430E-1,-3.435209990E0,-3.224621058E0,-3.880908966E0,6.104121807E0
3.242605350E-1,-3.435209990E0,-3.224621058E0,-3.880908966E0,6.104121807E0
3.282007470E-1,-1.027035952E0,-5.079129219E0,-2.130209953E-1,5.186302576E0
3.321402090E-1,-1.027035952E0,-5.079129219E0,-2.130209953E-1,5.186302576E0
3.360798240E-1,-1.027035952E0,-5.079129219E0,-2.130209953E-1,5.186302576E0
3.400192900E-1,-1.027035952E0,-5.079129219E0,-2.130209953E-1,5.186302576E0
3.439592900E-1,-1.027035952E0,-5.079129219E0,-2.130209953E-1,5.186302576E0
3.478992130E-1,-1.150746942E0,-5.214304924E0,-2.979710102E-1,5.348082001E0
3.518392470E-1,-1.150746942E0,-5.214304924E0,-2.979710102E-1,5.348082001E0
3.557786310E-1,-1.150746942E0,-5.214304924E0,-2.979710102E-1,5.348082001E0
3.597180160E-1,-1.150746942E0,-5.214304924E0,-2.979710102E-1,5.348082001E0
3.636586020E-1,-1.150746942E0,-5.214304924E0,-2.979710102E-1,5.348082001E0
3.675973720E-1,-1.263659954E0,-4.701851845E0,-1.090780973E0,4.989393789E0
3.715370640E-1,-1.263659954E0,-4.701851845E0,-1.090780973E0,4.989393789E0
3.754786170E-1,-1.263659954E0,-4.701851845E0,-1.090780973E0,4.989393789E0
3.794186170E-1,-1.263659954E0,-4.701851845E0,-1.090780973E0,4.989393789E0
3.833586940E-1,-1.263659954E0,-4.701851845E0,-1.090780973E0,4.989393789E0
3.872989530E-1,-1.263659954E0,-4.701851845E0,-1.090780973E0,4.989393789E0
3.912393380E-1,-2.110519886E0,-3.758733034E0,-2.459307909E0,4.962918859E0
3.951795680E-1,-2.110519886E0,-3.758733034E0,-2.459307909E0,4.962918859E0
3.991196550E-1,-2.110519886E0,-3.758733034E0,-2.459307909E0,4.962918859E0
4.030595780E-1,-2.110519886E0,-3.758733034E0,-2.459307909E0,4.962918859E0
4.069990400E-1,-2.110519886E0,-3.758733034E0,-2.459307909E0,4.962918859E0
4.109390690E-1,-3.125839949E0,-3.815275908E0,-2.643655062E0,5.596080568E0
4.148793770E-1,-3.125839949E0,-3.815275908E0,-2.643655062E0,5.596080568E0
4.188193770E-1,-3.125839949E0,-3.815275908E0,-2.643655062E0,5.596080568E0
4.227595930E-1,-3.125839949E0,-3.815275908E0,-2.643655062E0,5.596080568E0
4.266993620E-1,-3.125839949E0,-3.815275908E0,-2.643655062E0,5.596080568E0
4.306396690E-1,-3.477483988E0,-3.946252108E0,-1.921617031E0,5.599858266E0
4.345799770E-1,-3.477483988E0,-3.946252108E0,-1.921617031E0,5.599858266E0
4.385199770E-1,-3.477483988E0,-3.946252108E0,-1.921617031E0,5.599858266E0
4.424615160E-1,-3.477483988E0,-3.946252108E0,-1.921617031E0,5.599858266E0
4.464023620E-1,-3.477483988E0,-3.946252108E0,-1.921617031E0,5.599858266E0
4.503420540E-1,-3.493520021E0,-4.421528816E0,-4.100440145E-1,5.650020824E0
4.542820540E-1,-3.493520021E0,-4.421528816E0,-4.100440145E-1,5.650020824E0
4.582221310E-1,-3.493520021E0,-4.421528816E0,-4.100440145E-1,5.650020824E0
4.621626700E-1,-3.493520021E0,-4.421528816E0,-4.100440145E-1,5.650020824E0
4.661026700E-1,-3.493520021E0,-4.421528816E0,-4.100440145E-1,5.650020824E0
4.700427610E-1,-2.308892012E0,-3.753511906E0,2.457106113E0,5.045513294E0
4.739836080E-1,-2.308892012E0,-3.753511906E0,2.457106113E0,5.045513294E0
4.779236080E-1,-2.308892012E0,-3.753511906E0,2.457106113E0,5.045513294E0
4.818627410E-1,-2.308892012E0,-3.753511906E0,2.457106113E0,5.045513294E0
4.858024340E-1,-2.308892012E0,-3.753511906E0,2.457106113E0,5.045513294E0
4.897426650E-1,1.413365960E0,-2.860857010E0,5.544216156E0,6.396908547E0
4.936827370E-1,1.413365960E0,-2.860857010E0,5.544216156E0,6.396908547E0
4.976233520E-1,1.413365960E0,-2.860857010E0,5.544216156E0,6.396908547E0
5.015636600E-1,1.413365960E0,-2.860857010E0,5.544216156E0,6.396908547E0
5.055039480E-1,1.413365960E0,-2.860857010E0,5.544216156E0,6.396908547E0
5.094444870E-1,8.034337044E0,-7.756700367E-2,8.805578232E0,1.192035219E1
5.133845540E-1,8.034337044E0,-7.756700367E-2,8.805578232E0,1.192035219E1
5.173247840E-1,8.034337044E0,-7.756700367E-2,8.805578232E0,1.192035219E1
5.212645540E-1,8.034337044E0,-7.756700367E-2,8.805578232E0,1.192035219E1
5.252044770E-1,8.034337044E0,-7.756700367E-2,8.805578232E0,1.192035219E1
5.291442270E-1,1.259906578E1,1.953871012E0,5.581226826E0,1.391776431E1
5.330844580E-1,1.259906578E1,1.953871012E0,5.581226826E0,1.391776431E1
5.370242270E-1,1.259906578E1,1.953871012E0,5.581226826E0,1.391776431E1
5.409644430E-1,1.259906578E1,1.953871012E0,5.581226826E0,1.391776431E1
5.449048270E-1,1.259906578E1,1.953871012E0,5.581226826E0,1.391776431E1
5.488447510E-1,1.701477242E1,4.470074177E0,3.850131035E0,1.800854110E1
5.527842170E-1,1.701477242E1,4.470074177E0,3.850131035E0,1.800854110E1
5.567244480E-1,1.701477242E1,4.470074177E0,3.850131035E0,1.800854110E1
5.606648330E-1,1.701477242E1,4.470074177E0,3.850131035E0,1.800854110E1
5.646051210E-1,1.701477242E1,4.470074177E0,3.850131035E0,1.800854110E1
5.685456600E-1,1.835918236E1,4.088315964E0,2.095004082E0,1.892519343E1
5.724857370E-1,1.835918236E1,4.088315964E0,2.095004082E0,1.892519343E1
5.764254190E-1,1.835918236E1,4.088315964E0,2.095004082E0,1.892519343E1
5.803648040E-1,1.835918236E1,4.088315964E0,2.095004082E0,1.892519343E1
5.843041880E-1,1.835918236E1,4.088315964E0,2.095004082E0,1.892519343E1
5.882441260E-1,1.214720821E1,-2.725245953E0,-4.510000050E-1,1.245732852E1
5.921838190E-1,1.214720821E1,-2.725245953E0,-4.510000050E-1,1.245732852E1
5.961220490E-1,1.214720821E1,-2.725245953E0,-4.510000050E-1,1.245732852E1
6.000614050E-1,1.214720821E1,-2.725245953E0,-4.510000050E-1,1.245732852E1
6.040013280E-1,1.214720821E1,-2.725245953E0,-4.510000050E-1,1.245732852E1
6.079407900E-1,4.910786152E0,-5.702582836E0,-3.183821917E0,8.171413197E0
6.118807900E-1,4.910786152E0,-5.702582836E0,-3.183821917E0,8.171413197E0
6.158204050E-1,4.910786152E0,-5.702582836E0,-3.183821917E0,8.171413197E0
6.197601740E-1,4.910786152E0,-5.702582836E0,-3.183821917E0,8.171413197E0
6.236997900E-1,4.910786152E0,-5.702582836E0,-3.183821917E0,8.171413197E0
6.276394820E-1,1.300611019E0,-3.309751034E0,-4.282925129E0,5.566820330E0
6.315792510E-1,1.300611019E0,-3.309751034E0,-4.282925129E0,5.566820330E0
6.355210870E-1,1.300611019E0,-3.309751034E0,-4.282925129E0,5.566820330E0
6.394616260E-1,1.300611019E0,-3.309751034E0,-4.282925129E0,5.566820330E0
6.434019340E-1,1.300611019E0,-3.309751034E0,-4.282925129E0,5.566820330E0
6.473416120E-1,1.300611019E0,-3.309751034E0,-4.282925129E0,5.566820330E0
6.512813040E-1,1.164855003E0,2.466948986E0,4.955380917E0,5.656723832E0
6.552210730E-1,1.164855003E0,2.466948986E0,4.955380917E0,5.656723832E0
6.591613760E-1,1.164855003E0,2.466948986E0,4.955380917E0,5.656723832E0
6.631025300E-1,1.164855003E0,2.466948986E0,4.955380917E0,5.656723832E0
6.670419920E-1,1.164855003E0,2.466948986E0,4.955380917E0,5.656723832E0
6.709819250E-1,-4.659318924E0,6.302930832E0,9.012579918E-1,7.889769063E0
6.749216170E-1,-4.659318924E0,6.302930832E0,9.012579918E-1,7.889769063E0
6.788613860E-1,-4.659318924E0,6.302930832E0,9.012579918E-1,7.889769063E0
6.828017090E-1,-4.659318924E0,6.302930832E0,9.012579918E-1,7.889769063E0
6.867419400E-1,-4.659318924E0,6.302930832E0,9.012579918E-1,7.889769063E0
6.906804010E-1,-8.353742599E0,4.292393208E0,-1.811532021E0,9.565108631E0
6.946204150E-1,-8.353742599E0,4.292393208E0,-1.811532021E0,9.565108631E0
6.985604920E-1,-8.353742599E0,4.292393208E0,-1.811532021E0,9.565108631E0
7.025004920E-1,-8.353742599E0,4.292393208E0,-1.811532021E0,9.565108631E0
7.064407230E-1,-8.353742599E0,4.292393208E0,-1.811532021E0,9.565108631E0
7.103801080E-1,-7.012156963E0,2.476526022E0,-6.333669186E0,9.768259403E0
7.143195740E-1,-7.012156963E0,2.476526022E0,-6.333669186E0,9.768259403E0
7.182598820E-1,-7.012156963E0,2.476526022E0,-6.333669186E0,9.768259403E0
7.222001900E-1,-7.012156963E0,2.476526022E0,-6.333669186E0,9.768259403E0
7.261401900E-1,-7.012156963E0,2.476526022E0,-6.333669186E0,9.768259403E0
7.300798860E-1,-5.936081886E0,1.151039004E0,-4.464166164E0,7.516032098E0
7.340198090E-1,-5.936081886E0,1.151039004E0,-4.464166164E0,7.516032098E0
7.379592750E-1,-5.936081886E0,1.151039004E0,-4.464166164E0,7.516032098E0
7.418991990E-1,-5.936081886E0,1.151039004E0,-4.464166164E0,7.516032098E0
7.458389680E-1,-5.936081886E0,1.151039004E0,-4.464166164E0,7.516032098E0
7.497789730E-1,-5.558356762E0,-7.314519882E-1,-4.208347797E0,7.010031604E0
7.537183570E-1,-5.558356762E0,-7.314519882E-1,-4.208347797E0,7.010031604E0
7.576586650E-1,-5.558356762E0,-7.314519882E-1,-4.208347797E0,7.010031604E0
7.615993050E-1,-5.558356762E0,-7.314519882E-1,-4.208347797E0,7.010031604E0
7.655393050E-1,-5.558356762E0,-7.314519882E-1,-4.208347797E0,7.010031604E0
7.694792280E-1,-5.579312801E0,-1.658085942E0,-3.812058926E0,6.957713244E0
7.734188960E-1,-5.579312801E0,-1.658085942E0,-3.812058926E0,6.957713244E0
7.773586650E-1,-5.579312801E0,-1.658085942E0,-3.812058926E0,6.957713244E0
7.812983580E-1,-5.579312801E0,-1.658085942E0,-3.812058926E0,6.957713244E0
7.852383340E-1,-5.579312801E0,-1.658085942E0,-3.812058926E0,6.957713244E0
7.891782570E-1,-5.470846176E0,3.006849885E-1,-3.883712053E0,6.715935427E0
7.931183340E-1,-5.470846176E0,3.006849885E-1,-3.883712053E0,6.715935427E0
7.970580350E-1,-5.470846176E0,3.006849885E-1,-3.883712053E0,6.715935427E0
8.009977270E-1,-5.470846176E0,3.006849885E-1,-3.883712053E0,6.715935427E0
8.049376500E-1,-5.470846176E0,3.006849885E-1,-3.883712053E0,6.715935427E0
8.088776360E-1,-4.582330227E0,3.396265984E0,-3.837138891E0,6.874300532E0
8.128174060E-1,-4.582330227E0,3.396265984E0,-3.837138891E0,6.874300532E0
8.167570980E-1,-4.582330227E0,3.396265984E0,-3.837138891E0,6.874300532E0
8.206970300E-1,-4.582330227E0,3.396265984E0,-3.837138891E0,6.874300532E0
8.246367990E-1,-4.582330227E0,3.396265984E0,-3.837138891E0,6.874300532E0
8.285749530E-1,-2.670732975E0,4.952451229E0,-3.847220898E0,6.816208362E0
8.325142710E-1,-2.670732975E0,4.952451229E0,-3.847220898E0,6.816208362E0
8.364534250E-1,-2.670732975E0,4.952451229E0,-3.847220898E0,6.816208362E0
8.403927320E-1,-2.670732975E0,4.952451229E0,-3.847220898E0,6.816208362E0
8.443317990E-1,-2.670732975E0,4.952451229E0,-3.847220898E0,6.816208362E0
8.482709530E-1,6.536699831E-2,3.576690912E0,-3.790503979E0,5.211996848E0
8.522106450E-1,6.536699831E-2,3.576690912E0,-3.790503979E0,5.211996848E0
8.561499240E-1,6.536699831E-2,3.576690912E0,-3.790503979E0,5.211996848E0
8.600896160E-1,6.536699831E-2,3.576690912E0,-3.790503979E0,5.211996848E0
8.640293860E-1,6.536699831E-2,3.576690912E0,-3.790503979E0,5.211996848E0
8.679693860E-1,1.150179982E0,1.748819947E0,-3.262903929E0,3.876574164E0
8.719090780E-1,1.150179982E0,1.748819947E0,-3.262903929E0,3.876574164E0
8.758490780E-1,1.150179982E0,1.748819947E0,-3.262903929E0,3.876574164E0
8.797890580E-1,1.150179982E0,1.748819947E0,-3.262903929E0,3.876574164E0
8.837286730E-1,1.150179982E0,1.748819947E0,-3.262903929E0,3.876574164E0
8.876683660E-1,2.007561922E0,-1.073490009E-1,-1.968170047E0,2.813453752E0
8.916078270E-1,2.007561922E0,-1.073490009E-1,-1.968170047E0,2.813453752E0
8.955474430E-1,2.007561922E0,-1.073490009E-1,-1.968170047E0,2.813453752E0
8.994869040E-1,2.007561922E0,-1.073490009E-1,-1.968170047E0,2.813453752E0
9.034262120E-1,2.007561922E0,-1.073490009E-1,-1.968170047E0,2.813453752E0
9.073659040E-1,2.690695047E0,-1.455122948E0,-8.954600096E-1,3.187329801E0
9.113059810E-1,2.690695047E0,-1.455122948E0,-8.954600096E-1,3.187329801E0
9.152471400E-1,2.690695047E0,-1.455122948E0,-8.954600096E-1,3.187329801E0
9.191865250E-1,2.690695047E0,-1.455122948E0,-8.954600096E-1,3.187329801E0
9.231265250E-1,2.690695047E0,-1.455122948E0,-8.954600096E-1,3.187329801E0
9.270662990E-1,2.690695047E0,-1.455122948E0,-8.954600096E-1,3.187329801E0
9.310062220E-1,4.826828003E0,-3.328306913E0,1.274757981E0,6.000075282E0
9.349462990E-1,4.826828003E0,-3.328306913E0,1.274757981E0,6.000075282E0
9.388865250E-1,4.826828003E0,-3.328306913E0,1.274757981E0,6.000075282E0
9.428266020E-1,4.826828003E0,-3.328306913E0,1.274757981E0,6.000075282E0
9.467662170E-1,4.826828003E0,-3.328306913E0,1.274757981E0,6.000075282E0
9.507059720E-1,4.341967106E0,-3.784059048E0,1.419654965E0,5.931880094E0
9.546458950E-1,4.341967106E0,-3.784059048E0,1.419654965E0,5.931880094E0
9.585858950E-1,4.341967106E0,-3.784059048E0,1.419654965E0,5.931880094E0
9.625262990E-1,4.341967106E0,-3.784059048E0,1.419654965E0,5.931880094E0
9.664662220E-1,4.341967106E0,-3.784059048E0,1.419654965E0,5.931880094E0
9.704062220E-1,3.363850117E0,-3.127898932E0,2.918420136E-1,4.602652615E0
9.743463320E-1,3.363850117E0,-3.127898932E0,2.918420136E-1,4.602652615E0
9.782847940E-1,3.363850117E0,-3.127898932E0,2.918420136E-1,4.602652615E0
9.822247170E-1,3.363850117E0,-3.127898932E0,2.918420136E-1,4.602652615E0
9.861641640E-1,3.363850117E0,-3.127898932E0,2.918420136E-1,4.602652615E0
9.901040870E-1,2.336924076E0,-2.370039940E0,-4.836669862E-1,3.363366945E0
9.940437800E-1,2.336924076E0,-2.370039940E0,-4.836669862E-1,3.363366945E0
9.979835630E-1,2.336924076E0,-2.370039940E0,-4.836669862E-1,3.363366945E0
1.001923871E0,2.336924076E0,-2.370039940E0,-4.836669862E-1,3.363366945E0
1.005864101E0,2.336924076E0,-2.370039940E0,-4.836669862E-1,3.363366945E0
1.009804106E0,1.398751974E0,-2.042618990E0,-1.036533952E0,2.683878175E0
1.013744183E0,1.398751974E0,-2.042618990E0,-1.036533952E0,2.683878175E0
1.017684491E0,1.398751974E0,-2.042618990E0,-1.036533952E0,2.683878175E0
1.021624111E0,1.398751974E0,-2.042618990E0,-1.036533952E0,2.683878175E0
1.025564188E0,1.398751974E0,-2.042618990E0,-1.036533952E0,2.683878175E0
1.029503804E0,4.974229932E-1,-1.710847974E0,-1.253816962E0,2.178643477E0
1.033443573E0,4.974229932E-1,-1.710847974E0,-1.253816962E0,2.178643477E0
1.037384111E0,4.974229932E-1,-1.710847974E0,-1.253816962E0,2.178643477E0
1.041324419E0,4.974229932E-1,-1.710847974E0,-1.253816962E0,2.178643477E0
1.045264207E0,4.974229932E-1,-1.710847974E0,-1.253816962E0,2.178643477E0
1.049204823E0,-1.932909936E-1,-1.128630042E0,-1.502810955E0,1.889340612E0
1.053145361E0,-1.932909936E-1,-1.128630042E0,-1.502810955E0,1.889340612E0
1.057085736E0,-1.932909936E-1,-1.128630042E0,-1.502810955E0,1.889340612E0
1.061026043E0,-1.932909936E-1,-1.128630042E0,-1.502810955E0,1.889340612E0
1.064966043E0,-1.932909936E-1,-1.128630042E0,-1.502810955E0,1.889340612E0
1.068906602E0,-7.817599773E-1,-4.996010065E-1,-1.419481993E0,1.695782697E0
1.072846371E0,-7.817599773E-1,-4.996010065E-1,-1.419481993E0,1.695782697E0
1.076786602E0,-7.817599773E-1,-4.996010065E-1,-1.419481993E0,1.695782697E0
1.080726385E0,-7.817599773E-1,-4.996010065E-1,-1.419481993E0,1.695782697E0
1.084666924E0,-7.817599773E-1,-4.996010065E-1,-1.419481993E0,1.695782697E0
1.088606693E0,-1.241408944E0,-2.107840031E-1,-1.723631978E0,2.134580347E0
1.092546375E0,-1.241408944E0,-2.107840031E-1,-1.723631978E0,2.134580347E0
1.096486375E0,-1.241408944E0,-2.107840031E-1,-1.723631978E0,2.134580347E0
1.100426375E0,-1.241408944E0,-2.107840031E-1,-1.723631978E0,2.134580347E0
1.104366611E0,-1.241408944E0,-2.107840031E-1,-1.723631978E0,2.134580347E0
1.108306919E0,-9.583070278E-1,1.179959998E-1,-8.455420136E-1,1.283439407E0
1.112277129E0,-9.583070278E-1,1.179959998E-1,-8.455420136E-1,1.283439407E0
1.116247304E0,-9.583070278E-1,1.179959998E-1,-8.455420136E-1,1.283439407E0
1.120127611E0,-9.583070278E-1,1.179959998E-1,-8.455420136E-1,1.283439407E0
1.124068150E0,-9.583070278E-1,1.179959998E-1,-8.455420136E-1,1.283439407E0
1.128008477E0,-6.959789991E-1,3.360370100E-1,-5.244699866E-2,7.746343182E-1
1.131948554E0,-6.959789991E-1,3.360370100E-1,-5.244699866E-2,7.746343182E-1
1.135888862E0,-6.959789991E-1,3.360370100E-1,-5.244699866E-2,7.746343182E-1
1.139829097E0,-6.959789991E-1,3.360370100E-1,-5.244699866E-2,7.746343182E-1
1.143769712E0,-6.959789991E-1,3.360370100E-1,-5.244699866E-2,7.746343182E-1
1.147710327E0,-8.578410149E-1,7.955589890E-1,7.269600034E-2,1.172215859E0
1.151651025E0,-8.578410149E-1,7.955589890E-1,7.269600034E-2,1.172215859E0
1.155591332E0,-8.578410149E-1,7.955589890E-1,7.269600034E-2,1.172215859E0
1.159531640E0,-8.578410149E-1,7.955589890E-1,7.269600034E-2,1.172215859E0
1.163471866E0,-8.578410149E-1,7.955589890E-1,7.269600034E-2,1.172215859E0
1.167412174E0,-8.578410149E-1,7.955589890E-1,7.269600034E-2,1.172215859E0
1.171352251E0,-5.077210069E-1,1.332541943E0,-1.813690066E-1,1.437478127E0
1.175292573E0,-5.077210069E-1,1.332541943E0,-1.813690066E-1,1.437478127E0
1.179232573E0,-5.077210069E-1,1.332541943E0,-1.813690066E-1,1.437478127E0
1.183172881E0,-5.077210069E-1,1.332541943E0,-1.813690066E-1,1.437478127E0
1.187113409E0,-5.077210069E-1,1.332541943E0,-1.813690066E-1,1.437478127E0
1.191053717E0,1.207899973E-1,1.182520986E0,-7.934309840E-1,1.429153187E0
1.194993717E0,1.207899973E-1,1.182520986E0,-7.934309840E-1,1.429153187E0
1.198933698E0,1.207899973E-1,1.182520986E0,-7.934309840E-1,1.429153187E0
1.202873467E0,1.207899973E-1,1.182520986E0,-7.934309840E-1,1.429153187E0
1.206813698E0,1.207899973E-1,1.182520986E0,-7.934309840E-1,1.429153187E0
1.210753707E0,9.933030009E-1,1.125911951E0,-6.790210009E-1,1.647846502E0
1.214693784E0,9.933030009E-1,1.125911951E0,-6.790210009E-1,1.647846502E0
1.218634323E0,9.933030009E-1,1.125911951E0,-6.790210009E-1,1.647846502E0
1.222574640E0,9.933030009E-1,1.125911951E0,-6.790210009E-1,1.647846502E0
1.226514717E0,9.933030009E-1,1.125911951E0,-6.790210009E-1,1.647846502E0
1.230454948E0,1.089990973E0,1.355381012E0,-1.496649981E-1,1.745719800E0
1.234394655E0,1.089990973E0,1.355381012E0,-1.496649981E-1,1.745719800E0
1.238335040E0,1.089990973E0,1.355381012E0,-1.496649981E-1,1.745719800E0
1.242275271E0,1.089990973E0,1.355381012E0,-1.496649981E-1,1.745719800E0
1.246215670E0,1.089990973E0,1.355381012E0,-1.496649981E-1,1.745719800E0
1.250155670E0,1.810482025E0,1.912029028E0,2.046079934E-1,2.641129417E0
1.254096286E0,1.810482025E0,1.912029028E0,2.046079934E-1,2.641129417E0
1.258038132E0,1.810482025E0,1.912029028E0,2.046079934E-1,2.641129417E0
1.261978363E0,1.810482025E0,1.912029028E0,2.046079934E-1,2.641129417E0
1.265918363E0,1.810482025E0,1.912029028E0,2.046079934E-1,2.641129417E0
1.269858122E0,3.611411095E0,2.730056047E0,1.205384970E0,4.684917186E0
1.273798660E0,3.611411095E0,2.730056047E0,1.205384970E0,4.684917186E0
1.277738430E0,3.611411095E0,2.730056047E0,1.205384970E0,4.684917186E0
1.281678665E0,3.611411095E0,2.730056047E0,1.205384970E0,4.684917186E0
1.285619050E0,3.611411095E0,2.730056047E0,1.205384970E0,4.684917186E0
1.289559281E0,5.665075779E0,1.712653995E0,3.951328039E0,7.116126795E0
1.293499574E0,5.665075779E0,1.712653995E0,3.951328039E0,7.116126795E0
1.297439881E0,5.665075779E0,1.712653995E0,3.951328039E0,7.116126795E0
1.301379881E0,5.665075779E0,1.712653995E0,3.951328039E0,7.116126795E0
1.305319550E0,5.665075779E0,1.712653995E0,3.951328039E0,7.116126795E0
1.309259242E0,3.440186977E0,4.227910042E-1,5.959075928E0,6.893781588E0
1.313198608E0,3.440186977E0,4.227910042E-1,5.959075928E0,6.893781588E0
1.317138608E0,3.440186977E0,4.227910042E-1,5.959075928E0,6.893781588E0
1.321078608E0,3.440186977E0,4.227910042E-1,5.959075928E0,6.893781588E0
1.325018300E0,3.440186977E0,4.227910042E-1,5.959075928E0,6.893781588E0
1.328957746E0,6.934729815E-1,1.013363957E0,2.712743998E0,2.977715783E0
1.332897977E0,6.934729815E-1,1.013363957E0,2.712743998E0,2.977715783E0
1.336837977E0,6.934729815E-1,1.013363957E0,2.712743998E0,2.977715783E0
1.340776434E0,6.934729815E-1,1.013363957E0,2.712743998E0,2.977715783E0
1.344716126E0,6.934729815E-1,1.013363957E0,2.712743998E0,2.977715783E0
1.348655588E0,-1.042508006E0,2.831245899E0,-2.611010075E-1,3.028357644E0
1.352595574E0,-1.042508006E0,2.831245899E0,-2.611010075E-1,3.028357644E0
1.356535574E0,-1.042508006E0,2.831245899E0,-2.611010075E-1,3.028357644E0
1.360476497E0,-1.042508006E0,2.831245899E0,-2.611010075E-1,3.028357644E0
1.364417728E0,-1.042508006E0,2.831245899E0,-2.611010075E-1,3.028357644E0
1.368357728E0,-2.780200958E0,5.124787807E0,-5.901839733E-1,5.860143732E0
1.372297651E0,-2.780200958E0,5.124787807E0,-5.901839733E-1,5.860143732E0
1.376237430E0,-2.780200958E0,5.124787807E0,-5.901839733E-1,5.860143732E0
1.380177738E0,-2.780200958E0,5.124787807E0,-5.901839733E-1,5.860143732E0
1.384117738E0,-3.584178925E0,6.675950050E0,-3.532760143E-1,7.585476358E0
1.388057362E0,-3.584178925E0,6.675950050E0,-3.532760143E-1,7.585476358E0
1.391998285E0,-3.584178925E0,6.675950050E0,-3.532760143E-1,7.585476358E0
1.395939208E0,-3.584178925E0,6.675950050E0,-3.532760143E-1,7.585476358E0
1.399878579E0,-3.584178925E0,6.675950050E0,-3.532760143E-1,7.585476358E0
1.403817348E0,-3.584178925E0,6.675950050E0,-3.532760143E-1,7.585476358E0
1.407757117E0,-4.060223103E0,8.221121788E0,-1.876029968E-1,9.171011394E0
1.411697434E0,-4.060223103E0,8.221121788E0,-1.876029968E-1,9.171011394E0
1.415637665E0,-4.060223103E0,8.221121788E0,-1.876029968E-1,9.171011394E0
1.419577742E0,-4.060223103E0,8.221121788E0,-1.876029968E-1,9.171011394E0
1.423518049E0,-4.060223103E0,8.221121788E0,-1.876029968E-1,9.171011394E0
1.427458357E0,-4.616146088E0,6.368741989E0,-1.455559969E0,7.999270845E0
1.431398972E0,-4.616146088E0,6.368741989E0,-1.455559969E0,7.999270845E0
1.435339497E0,-4.616146088E0,6.368741989E0,-1.455559969E0,7.999270845E0
1.439279805E0,-4.616146088E0,6.368741989E0,-1.455559969E0,7.999270845E0
1.443220420E0,-4.616146088E0,6.368741989E0,-1.455559969E0,7.999270845E0
1.447160506E0,-4.616146088E0,6.368741989E0,-1.455559969E0,7.999270845E0
1.451100737E0,-4.126586914E0,1.787722945E0,-2.141396046E0,4.980988849E0
1.455041352E0,-4.126586914E0,1.787722945E0,-2.141396046E0,4.980988849E0
1.458982044E0,-4.126586914E0,1.787722945E0,-2.141396046E0,4.980988849E0
1.462922583E0,-4.126586914E0,1.787722945E0,-2.141396046E0,4.980988849E0
1.466862583E0,-3.418895006E0,-4.116910100E-1,-2.435349941E0,4.217731842E0
1.470802968E0,-3.418895006E0,-4.116910100E-1,-2.435349941E0,4.217731842E0
1.474743583E0,-3.418895006E0,-4.116910100E-1,-2.435349941E0,4.217731842E0
1.478684121E0,-3.418895006E0,-4.116910100E-1,-2.435349941E0,4.217731842E0
1.482624444E0,-3.418895006E0,-4.116910100E-1,-2.435349941E0,4.217731842E0
1.486564829E0,-3.418895006E0,-4.116910100E-1,-2.435349941E0,4.217731842E0
1.490504521E0,-2.596220970E0,-2.790887117E0,-2.688668966E0,4.664585195E0
1.494444843E0,-2.596220970E0,-2.790887117E0,-2.688668966E0,4.664585195E0
1.498385150E0,-2.596220970E0,-2.790887117E0,-2.688668966E0,4.664585195E0
1.502324458E0,-2.596220970E0,-2.790887117E0,-2.688668966E0,4.664585195E0
1.506264559E0,-2.596220970E0,-2.790887117E0,-2.688668966E0,4.664585195E0
1.510204867E0,-1.736266017E0,-3.824475050E0,-1.139636040E0,4.352010960E0
1.514145800E0,-1.736266017E0,-3.824475050E0,-1.139636040E0,4.352010960E0
1.518086954E0,-1.736266017E0,-3.824475050E0,-1.139636040E0,4.352010960E0
1.522027261E0,-1.736266017E0,-3.824475050E0,-1.139636040E0,4.352010960E0
1.525967338E0,-1.736266017E0,-3.824475050E0,-1.139636040E0,4.352010960E0
1.529907266E0,-1.069244027E0,-4.399128914E0,3.760829866E-1,4.542802704E0
1.533847574E0,-1.069244027E0,-4.399128914E0,3.760829866E-1,4.542802704E0
1.537787593E0,-1.069244027E0,-4.399128914E0,3.760829866E-1,4.542802704E0
1.541727593E0,-1.069244027E0,-4.399128914E0,3.760829866E-1,4.542802704E0
1.545669516E0,-1.069244027E0,-4.399128914E0,3.760829866E-1,4.542802704E0
1.549610060E0,-1.810266972E0,-4.171651840E0,2.241599932E-2,4.547554075E0
1.553550137E0,-1.810266972E0,-4.171651840E0,2.241599932E-2,4.547554075E0
1.557490444E0,-1.810266972E0,-4.171651840E0,2.241599932E-2,4.547554075E0
1.561430060E0,-1.810266972E0,-4.171651840E0,2.241599932E-2,4.547554075E0
1.565369521E0,-1.810266972E0,-4.171651840E0,2.241599932E-2,4.547554075E0
1.569310137E0,-2.193552971E0,-3.995695114E0,-2.536709905E-1,4.565260458E0
1.573251050E0,-2.193552971E0,-3.995695114E0,-2.536709905E-1,4.565260458E0
1.577191896E0,-2.193552971E0,-3.995695114E0,-2.536709905E-1,4.565260458E0
1.581132588E0,-2.193552971E0,-3.995695114E0,-2.536709905E-1,4.565260458E0
1.585072896E0,-2.758826017E0,-3.787652016E0,-1.033810973E0,4.798561651E0
1.589012896E0,-2.758826017E0,-3.787652016E0,-1.033810973E0,4.798561651E0
1.592952819E0,-2.758826017E0,-3.787652016E0,-1.033810973E0,4.798561651E0
1.596893107E0,-2.758826017E0,-3.787652016E0,-1.033810973E0,4.798561651E0
1.600832491E0,-2.758826017E0,-3.787652016E0,-1.033810973E0,4.798561651E0
1.604772491E0,-2.758826017E0,-3.787652016E0,-1.033810973E0,4.798561651E0
1.608712568E0,-4.035121918E0,-4.241756916E0,-3.051010072E-1,5.862405415E0
1.612652799E0,-4.035121918E0,-4.241756916E0,-3.051010072E-1,5.862405415E0
1.616592876E0,-4.035121918E0,-4.241756916E0,-3.051010072E-1,5.862405415E0
1.620533415E0,-4.035121918E0,-4.241756916E0,-3.051010072E-1,5.862405415E0
1.624473184E0,-4.035121918E0,-4.241756916E0,-3.051010072E-1,5.862405415E0
1.628413107E0,-4.381516933E0,-4.621897221E0,-2.547100000E-2,6.368694790E0
1.632353387E0,-4.381516933E0,-4.621897221E0,-2.547100000E-2,6.368694790E0
1.636293463E0,-4.381516933E0,-4.621897221E0,-2.547100000E-2,6.368694790E0
1.640235310E0,-4.381516933E0,-4.621897221E0,-2.547100000E-2,6.368694790E0
1.644175549E0,-4.381516933E0,-4.621897221E0,-2.547100000E-2,6.368694790E0
1.648115857E0,-4.333093166E0,-5.049283981E0,4.193190038E-1,6.666842846E0
1.652056242E0,-4.333093166E0,-5.049283981E0,4.193190038E-1,6.666842846E0
1.655996799E0,-4.333093166E0,-5.049283981E0,4.193190038E-1,6.666842846E0
1.659937184E0,-4.333093166E0,-5.049283981E0,4.193190038E-1,6.666842846E0
1.663877184E0,-4.333093166E0,-5.049283981E0,4.193190038E-1,6.666842846E0
1.667817708E0,-3.303699970E0,-4.324936867E0,3.951392889E0,6.725549655E0
1.671757478E0,-3.303699970E0,-4.324936867E0,3.951392889E0,6.725549655E0
1.675698016E0,-3.303699970E0,-4.324936867E0,3.951392889E0,6.725549655E0
1.679638310E0,-3.303699970E0,-4.324936867E0,3.951392889E0,6.725549655E0
1.683576848E0,-3.303699970E0,-4.324936867E0,3.951392889E0,6.725549655E0
1.687517694E0,6.673970222E-1,-2.535147905E0,9.341316223E0,9.702194724E0
1.691457997E0,6.673970222E-1,-2.535147905E0,9.341316223E0,9.702194724E0
1.695398305E0,6.673970222E-1,-2.535147905E0,9.341316223E0,9.702194724E0
1.699338074E0,6.673970222E-1,-2.535147905E0,9.341316223E0,9.702194724E0
1.703278602E0,6.673970222E-1,-2.535147905E0,9.341316223E0,9.702194724E0
1.707218064E0,6.673970222E-1,-2.535147905E0,9.341316223E0,9.702194724E0
1.711158064E0,1.234982967E1,4.485769868E-1,1.057893944E1,1.626755894E1
1.715097987E0,1.234982967E1,4.485769868E-1,1.057893944E1,1.626755894E1
1.719036141E0,1.234982967E1,4.485769868E-1,1.057893944E1,1.626755894E1
1.722975833E0,1.234982967E1,4.485769868E-1,1.057893944E1,1.626755894E1
1.726915512E0,1.234982967E1,4.485769868E-1,1.057893944E1,1.626755894E1
1.730855589E0,1.734108925E1,3.292160034E0,-2.696746111E0,1.785564711E1
1.734796819E0,1.734108925E1,3.292160034E0,-2.696746111E0,1.785564711E1
1.738736497E0,1.734108925E1,3.292160034E0,-2.696746111E0,1.785564711E1
1.742676727E0,1.734108925E1,3.292160034E0,-2.696746111E0,1.785564711E1
1.746616804E0,1.734108925E1,3.292160034E0,-2.696746111E0,1.785564711E1
1.750557021E0,2.157833672E1,4.769504070E0,4.645265102E0,2.258210071E1
1.754497098E0,2.157833672E1,4.769504070E0,4.645265102E0,2.258210071E1
1.758437329E0,2.157833672E1,4.769504070E0,4.645265102E0,2.258210071E1
1.762377362E0,2.157833672E1,4.769504070E0,4.645265102E0,2.258210071E1
1.766317439E0,2.157833672E1,4.769504070E0,4.645265102E0,2.258210071E1
1.770257362E0,1.360817528E1,2.618609965E-1,2.137820959E0,1.377756452E1
1.774197699E0,1.360817528E1,2.618609965E-1,2.137820959E0,1.377756452E1
1.778137776E0,1.360817528E1,2.618609965E-1,2.137820959E0,1.377756452E1
1.782077776E0,1.360817528E1,2.618609965E-1,2.137820959E0,1.377756452E1
1.786018011E0,1.360817528E1,2.618609965E-1,2.137820959E0,1.377756452E1
1.789957781E0,6.517004967E0,-4.861482143E0,-3.598780036E-1,8.138481096E0
1.793896781E0,6.517004967E0,-4.861482143E0,-3.598780036E-1,8.138481096E0
1.797836842E0,6.517004967E0,-4.861482143E0,-3.598780036E-1,8.138481096E0
1.801777073E0,6.517004967E0,-4.861482143E0,-3.598780036E-1,8.138481096E0
1.805717150E0,6.517004967E0,-4.861482143E0,-3.598780036E-1,8.138481096E0
1.809659020E0,5.145580173E-1,-5.415958881E0,-2.146585941E0,5.848522186E0
1.813598943E0,5.145580173E-1,-5.415958881E0,-2.146585941E0,5.848522186E0
1.817538405E0,5.145580173E-1,-5.415958881E0,-2.146585941E0,5.848522186E0
1.821479308E0,5.145580173E-1,-5.415958881E0,-2.146585941E0,5.848522186E0
1.825417770E0,5.145580173E-1,-5.415958881E0,-2.146585941E0,5.848522186E0
1.829357693E0,-1.820469975E0,3.933460116E-1,5.467779160E0,5.776282624E0
1.833298000E0,-1.820469975E0,3.933460116E-1,5.467779160E0,5.776282624E0
1.837238077E0,-1.820469975E0,3.933460116E-1,5.467779160E0,5.776282624E0
1.841178385E0,-1.820469975E0,3.933460116E-1,5.467779160E0,5.776282624E0
1.845118053E0,-1.820469975E0,3.933460116E-1,5.467779160E0,5.776282624E0
1.849056515E0,3.186347008E0,5.639626980E0,-5.470589995E-1,6.500574842E0
1.852996438E0,3.186347008E0,5.639626980E0,-5.470589995E-1,6.500574842E0
1.856936130E0,3.186347008E0,5.639626980E0,-5.470589995E-1,6.500574842E0
1.860875592E0,3.186347008E0,5.639626980E0,-5.470589995E-1,6.500574842E0
1.864817361E0,3.186347008E0,5.639626980E0,-5.470589995E-1,6.500574842E0
1.868758679E0,-3.606178999E0,7.756729126E0,-4.155150890E0,9.509818748E0
1.872698910E0,-3.606178999E0,7.756729126E0,-4.155150890E0,9.509818748E0
1.876638910E0,-3.606178999E0,7.756729126E0,-4.155150890E0,9.509818748E0
1.880579207E0,-3.606178999E0,7.756729126E0,-4.155150890E0,9.509818748E0
1.884517977E0,-3.606178999E0,7.756729126E0,-4.155150890E0,9.509818748E0
1.888458284E0,-7.927036762E0,-2.005580068E-1,-2.850795984E0,8.426456734E0
1.892398602E0,-7.927036762E0,-2.005580068E-1,-2.850795984E0,8.426456734E0
1.896338602E0,-7.927036762E0,-2.005580068E-1,-2.850795984E0,8.426456734E0
1.900278371E0,-7.927036762E0,-2.005580068E-1,-2.850795984E0,8.426456734E0
1.904218587E0,-7.927036762E0,-2.005580068E-1,-2.850795984E0,8.426456734E0
1.908158664E0,-6.014945030E0,-2.284461021E0,-5.384100914E0,8.389688226E0
1.912128819E0,-6.014945030E0,-2.284461021E0,-5.384100914E0,8.389688226E0
1.916098916E0,-6.014945030E0,-2.284461021E0,-5.384100914E0,8.389688226E0
1.919979607E0,-6.014945030E0,-2.284461021E0,-5.384100914E0,8.389688226E0
1.923919299E0,-6.014945030E0,-2.284461021E0,-5.384100914E0,8.389688226E0
1.927859236E0,-6.598705769E0,1.323104978E0,-3.302403927E0,7.496625661E0
1.931799006E0,-6.598705769E0,1.323104978E0,-3.302403927E0,7.496625661E0
1.935739006E0,-6.598705769E0,1.323104978E0,-3.302403927E0,7.496625661E0
1.939679020E0,-6.598705769E0,1.323104978E0,-3.302403927E0,7.496625661E0
1.943619250E0,-6.598705769E0,1.323104978E0,-3.302403927E0,7.496625661E0
1.947559250E0,-6.565011978E0,3.108258963E0,-2.672574997E0,7.739723068E0
1.951498693E0,-6.565011978E0,3.108258963E0,-2.672574997E0,7.739723068E0
1.955438693E0,-6.565011978E0,3.108258963E0,-2.672574997E0,7.739723068E0
1.959378616E0,-6.565011978E0,3.108258963E0,-2.672574997E0,7.739723068E0
1.963319303E0,-6.565011978E0,3.108258963E0,-2.672574997E0,7.739723068E0
1.967259303E0,-6.565011978E0,3.108258963E0,-2.672574997E0,7.739723068E0
1.971199842E0,-5.443301201E0,2.938900948E0,-2.902025938E0,6.832892600E0
1.975139842E0,-5.443301201E0,2.938900948E0,-2.902025938E0,6.832892600E0
1.979079919E0,-5.443301201E0,2.938900948E0,-2.902025938E0,6.832892600E0
1.983019919E0,-5.443301201E0,2.938900948E0,-2.902025938E0,6.832892600E0
1.986959910E0,-5.443301201E0,2.938900948E0,-2.902025938E0,6.832892600E0
1.990899602E0,-4.870513916E0,2.761023998E0,-2.977372885E0,6.341128340E0
1.994839602E0,-4.870513916E0,2.761023998E0,-2.977372885E0,6.341128340E0
1.998779481E0,-4.870513916E0,2.761023998E0,-2.977372885E0,6.341128340E0
2.002719174E0,-4.870513916E0,2.761023998E0,-2.977372885E0,6.341128340E0
2.006658635E0,-4.870513916E0,2.761023998E0,-2.977372885E0,6.341128340E0
2.010598068E0,-3.047974110E0,2.350653887E0,-3.167201996E0,4.984665320E0
2.014536529E0,-3.047974110E0,2.350653887E0,-3.167201996E0,4.984665320E0
2.018475914E0,-3.047974110E0,2.350653887E0,-3.167201996E0,4.984665320E0
2.022415548E0,-3.047974110E0,2.350653887E0,-3.167201996E0,4.984665320E0
2.026355318E0,-3.047974110E0,2.350653887E0,-3.167201996E0,4.984665320E0
2.030295241E0,-1.133481979E0,2.129746914E0,-3.386823893E0,4.158266393E0
2.034235251E0,-1.133481979E0,2.129746914E0,-3.386823893E0,4.158266393E0
2.038175328E0,-1.133481979E0,2.129746914E0,-3.386823893E0,4.158266393E0
2.042115635E0,-1.133481979E0,2.129746914E0,-3.386823893E0,4.158266393E0
2.046055645E0,-1.133481979E0,2.129746914E0,-3.386823893E0,4.158266393E0
2.049995338E0,1.248809993E-1,1.918120027E0,-3.231009007E0,3.759547699E0
2.053935030E0,1.248809993E-1,1.918120027E0,-3.231009007E0,3.759547699E0
2.057874953E0,1.248809993E-1,1.918120027E0,-3.231009007E0,3.759547699E0
2.061814645E0,1.248809993E-1,1.918120027E0,-3.231009007E0,3.759547699E0
2.065754645E0,1.248809993E-1,1.918120027E0,-3.231009007E0,3.759547699E0
2.069694635E0,8.234030008E-1,1.121876001E0,-1.989874959E0,2.428209344E0
2.073634405E0,8.234030008E-1,1.121876001E0,-1.989874959E0,2.428209344E0
2.077574712E0,8.234030008E-1,1.121876001E0,-1.989874959E0,2.428209344E0
2.081514606E0,8.234030008E-1,1.121876001E0,-1.989874959E0,2.428209344E0
2.085454683E0,8.234030008E-1,1.121876001E0,-1.989874959E0,2.428209344E0
2.089393991E0,1.106564045E0,1.152599975E-2,-9.259380102E-1,1.442906107E0
2.093334616E0,1.106564045E0,1.152599975E-2,-9.259380102E-1,1.442906107E0
2.097273770E0,1.106564045E0,1.152599975E-2,-9.259380102E-1,1.442906107E0
2.101214078E0,1.106564045E0,1.152599975E-2,-9.259380102E-1,1.442906107E0
2.105153673E0,1.106564045E0,1.152599975E-2,-9.259380102E-1,1.442906107E0
2.109093673E0,1.447553039E0,-1.273066044E0,-7.059699893E-1,2.052924884E0
2.113035506E0,1.447553039E0,-1.273066044E0,-7.059699893E-1,2.052924884E0
2.117058582E0,1.447553039E0,-1.273066044E0,-7.059699893E-1,2.052924884E0
2.120915506E0,1.447553039E0,-1.273066044E0,-7.059699893E-1,2.052924884E0
2.124855890E0,1.447553039E0,-1.273066044E0,-7.059699893E-1,2.052924884E0
2.128796183E0,2.445172071E0,-2.433571100E0,-2.789750099E-1,3.461063683E0
2.132736414E0,2.445172071E0,-2.433571100E0,-2.789750099E-1,3.461063683E0
2.136676414E0,2.445172071E0,-2.433571100E0,-2.789750099E-1,3.461063683E0
2.140616400E0,2.445172071E0,-2.433571100E0,-2.789750099E-1,3.461063683E0
2.144556784E0,2.445172071E0,-2.433571100E0,-2.789750099E-1,3.461063683E0
2.148497400E0,3.231167078E0,-3.134545088E0,3.120180070E-1,4.512556795E0
2.152437376E0,3.231167078E0,-3.134545088E0,3.120180070E-1,4.512556795E0
2.156377299E0,3.231167078E0,-3.134545088E0,3.120180070E-1,4.512556795E0
2.160317299E0,3.231167078E0,-3.134545088E0,3.120180070E-1,4.512556795E0
2.164257092E0,3.231167078E0,-3.134545088E0,3.120180070E-1,4.512556795E0
2.168197323E0,3.468138933E0,-3.174753904E0,3.086969852E-1,4.711936316E0
2.172137092E0,3.468138933E0,-3.174753904E0,3.086969852E-1,4.711936316E0
2.176076199E0,3.468138933E0,-3.174753904E0,3.086969852E-1,4.711936316E0
2.180015584E0,3.468138933E0,-3.174753904E0,3.086969852E-1,4.711936316E0
2.183954276E0,3.468138933E0,-3.174753904E0,3.086969852E-1,4.711936316E0
2.187893766E0,2.958811045E0,-2.800137043E0,-1.863099933E-1,4.077994810E0
2.191833382E0,2.958811045E0,-2.800137043E0,-1.863099933E-1,4.077994810E0
2.195772459E0,2.958811045E0,-2.800137043E0,-1.863099933E-1,4.077994810E0
2.199711891E0,2.958811045E0,-2.800137043E0,-1.863099933E-1,4.077994810E0
2.203651276E0,2.958811045E0,-2.800137043E0,-1.863099933E-1,4.077994810E0
2.207591199E0,1.900509000E0,-2.079459906E0,-3.731549978E-1,2.841712971E0
2.211531180E0,1.900509000E0,-2.079459906E0,-3.731549978E-1,2.841712971E0
2.215471257E0,1.900509000E0,-2.079459906E0,-3.731549978E-1,2.841712971E0
2.219411257E0,1.900509000E0,-2.079459906E0,-3.731549978E-1,2.841712971E0
2.223350958E0,1.900509000E0,-2.079459906E0,-3.731549978E-1,2.841712971E0
2.227290958E0,1.095191002E0,-1.448552012E0,-4.047549963E-1,1.860530266E0
2.231231266E0,1.095191002E0,-1.448552012E0,-4.047549963E-1,1.860530266E0
2.235171502E0,1.095191002E0,-1.448552012E0,-4.047549963E-1,1.860530266E0
2.239111579E0,1.095191002E0,-1.448552012E0,-4.047549963E-1,1.860530266E0
2.243051886E0,1.095191002E0,-1.448552012E0,-4.047549963E-1,1.860530266E0
2.246992194E0,1.095191002E0,-1.448552012E0,-4.047549963E-1,1.860530266E0
2.250932425E0,5.827829838E-1,-7.187579870E-1,-5.233629942E-1,1.063088836E0
2.254872502E0,5.827829838E-1,-7.187579870E-1,-5.233629942E-1,1.063088836E0
2.258813045E0,5.827829838E-1,-7.187579870E-1,-5.233629942E-1,1.063088836E0
2.262753738E0,5.827829838E-1,-7.187579870E-1,-5.233629942E-1,1.063088836E0
2.266694353E0,5.827829838E-1,-7.187579870E-1,-5.233629942E-1,1.063088836E0
2.270634598E0,5.155099928E-2,-2.596229911E-1,-7.726470232E-1,8.167282446E-1
2.274574675E0,5.155099928E-2,-2.596229911E-1,-7.726470232E-1,8.167282446E-1
2.278514982E0,5.155099928E-2,-2.596229911E-1,-7.726470232E-1,8.167282446E-1
2.282455603E0,5.155099928E-2,-2.596229911E-1,-7.726470232E-1,8.167282446E-1
2.286395911E0,5.155099928E-2,-2.596229911E-1,-7.726470232E-1,8.167282446E-1
2.290336834E0,-3.713949919E-1,-1.784499921E-2,-1.042305946E0,1.106641030E0
2.294278078E0,-3.713949919E-1,-1.784499921E-2,-1.042305946E0,1.106641030E0
2.298218078E0,-3.713949919E-1,-1.784499921E-2,-1.042305946E0,1.106641030E0
2.302158617E0,-3.713949919E-1,-1.784499921E-2,-1.042305946E0,1.106641030E0
2.306099536E0,-3.713949919E-1,-1.784499921E-2,-1.042305946E0,1.106641030E0
2.310040459E0,-4.390749931E-1,1.418759972E-1,-5.538920164E-1,7.209105451E-1
2.313980843E0,-4.390749931E-1,1.418759972E-1,-5.538920164E-1,7.209105451E-1
2.317920843E0,-4.390749931E-1,1.418759972E-1,-5.538920164E-1,7.209105451E-1
2.321861073E0,-4.390749931E-1,1.418759972E-1,-5.538920164E-1,7.209105451E-1
2.325800843E0,-4.390749931E-1,1.418759972E-1,-5.538920164E-1,7.209105451E-1
2.329740540E0,-6.545839906E-1,8.257900178E-2,-1.365450025E-1,6.737536864E-1
2.333682002E0,-6.545839906E-1,8.257900178E-2,-1.365450025E-1,6.737536864E-1
2.337623940E0,-6.545839906E-1,8.257900178E-2,-1.365450025E-1,6.737536864E-1
2.341564478E0,-6.545839906E-1,8.257900178E-2,-1.365450025E-1,6.737536864E-1
2.345504555E0,-6.545839906E-1,8.257900178E-2,-1.365450025E-1,6.737536864E-1
2.349444545E0,-9.369869828E-1,-1.416880041E-1,1.692419946E-1,9.626333410E-1
2.353383237E0,-9.369869828E-1,-1.416880041E-1,1.692419946E-1,9.626333410E-1
2.357323622E0,-9.369869828E-1,-1.416880041E-1,1.692419946E-1,9.626333410E-1
2.361264175E0,-9.369869828E-1,-1.416880041E-1,1.692419946E-1,9.626333410E-1
2.365204867E0,-9.369869828E-1,-1.416880041E-1,1.692419946E-1,9.626333410E-1
2.369145175E0,-8.690009713E-1,3.386340141E-1,-6.378170252E-1,1.129887712E0
2.373085704E0,-8.690009713E-1,3.386340141E-1,-6.378170252E-1,1.129887712E0
2.377025704E0,-8.690009713E-1,3.386340141E-1,-6.378170252E-1,1.129887712E0
2.380965781E0,-8.690009713E-1,3.386340141E-1,-6.378170252E-1,1.129887712E0
2.384905468E0,-8.690009713E-1,3.386340141E-1,-6.378170252E-1,1.129887712E0
2.388845699E0,-1.384550035E-1,1.242982984E0,-1.941141009E0,2.309156752E0
2.392785776E0,-1.384550035E-1,1.242982984E0,-1.941141009E0,2.309156752E0
2.396725761E0,-1.384550035E-1,1.242982984E0,-1.941141009E0,2.309156752E0
2.400666299E0,-1.384550035E-1,1.242982984E0,-1.941141009E0,2.309156752E0
2.404606684E0,-1.384550035E-1,1.242982984E0,-1.941141009E0,2.309156752E0
2.408547228E0,6.531000137E-3,2.701169014E0,-2.579663038E0,3.735106168E0
2.412487843E0,6.531000137E-3,2.701169014E0,-2.579663038E0,3.735106168E0
2.416428151E0,6.531000137E-3,2.701169014E0,-2.579663038E0,3.735106168E0
2.420368544E0,6.531000137E-3,2.701169014E0,-2.579663038E0,3.735106168E0
2.424309390E0,6.531000137E-3,2.701169014E0,-2.579663038E0,3.735106168E0
2.428249775E0,2.127420008E-1,3.365825891E0,-1.429456949E0,3.662975602E0
2.432190626E0,2.127420008E-1,3.365825891E0,-1.429456949E0,3.662975602E0
2.436131319E0,2.127420008E-1,3.365825891E0,-1.429456949E0,3.662975602E0
2.440072242E0,2.127420008E-1,3.365825891E0,-1.429456949E0,3.662975602E0
2.444012876E0,2.127420008E-1,3.365825891E0,-1.429456949E0,3.662975602E0
2.447953414E0,8.793599904E-2,2.421539068E0,-1.918610036E-1,2.430718997E0
2.451895030E0,8.793599904E-2,2.421539068E0,-1.918610036E-1,2.430718997E0
2.455835353E0,8.793599904E-2,2.421539068E0,-1.918610036E-1,2.430718997E0
2.459775968E0,8.793599904E-2,2.421539068E0,-1.918610036E-1,2.430718997E0
2.463716814E0,8.793599904E-2,2.421539068E0,-1.918610036E-1,2.430718997E0
2.467657180E0,3.653461933E0,2.555744886E0,1.315238953E0,4.648598662E0
2.471597718E0,3.653461933E0,2.555744886E0,1.315238953E0,4.648598662E0
2.475538103E0,3.653461933E0,2.555744886E0,1.315238953E0,4.648598662E0
2.479479030E0,3.653461933E0,2.555744886E0,1.315238953E0,4.648598662E0
2.483419645E0,3.653461933E0,2.555744886E0,1.315238953E0,4.648598662E0
2.487359645E0,3.653461933E0,2.555744886E0,1.315238953E0,4.648598662E0
2.491299645E0,4.098308086E0,1.261659980E0,6.582014084E0,7.855623748E0
2.495240261E0,4.098308086E0,1.261659980E0,6.582014084E0,7.855623748E0
2.499180492E0,4.098308086E0,1.261659980E0,6.582014084E0,7.855623748E0
2.503120881E0,4.098308086E0,1.261659980E0,6.582014084E0,7.855623748E0
2.507061189E0,4.098308086E0,1.261659980E0,6.582014084E0,7.855623748E0
2.511001420E0,9.729959965E-1,7.828199863E-1,5.241900921E0,5.388604050E0
2.514941411E0,9.729959965E-1,7.828199863E-1,5.241900921E0,5.388604050E0
2.518881411E0,9.729959965E-1,7.828199863E-1,5.241900921E0,5.388604050E0
2.522821488E0,9.729959965E-1,7.828199863E-1,5.241900921E0,5.388604050E0
2.526761411E0,9.729959965E-1,7.828199863E-1,5.241900921E0,5.388604050E0
2.530701175E0,-1.273777962E0,2.331950903E0,2.257911921E0,3.486928670E0
2.534641098E0,-1.273777962E0,2.331950903E0,2.257911921E0,3.486928670E0
2.538581698E0,-1.273777962E0,2.331950903E0,2.257911921E0,3.486928670E0
2.542522083E0,-1.273777962E0,2.331950903E0,2.257911921E0,3.486928670E0
2.546464237E0,-1.273777962E0,2.331950903E0,2.257911921E0,3.486928670E0
2.550404741E0,-2.326052904E0,4.833154202E0,5.427089930E-1,5.391144099E0
2.554345049E0,-2.326052904E0,4.833154202E0,5.427089930E-1,5.391144099E0
2.558285664E0,-2.326052904E0,4.833154202E0,5.427089930E-1,5.391144099E0
2.562225750E0,-2.326052904E0,4.833154202E0,5.427089930E-1,5.391144099E0
2.566166289E0,-2.326052904E0,4.833154202E0,5.427089930E-1,5.391144099E0
2.570106058E0,-3.345989943E0,7.355696201E0,5.593969822E-1,8.100298778E0
2.574045693E0,-3.345989943E0,7.355696201E0,5.593969822E-1,8.100298778E0
2.577985693E0,-3.345989943E0,7.355696201E0,5.593969822E-1,8.100298778E0
2.581925463E0,-3.345989943E0,7.355696201E0,5.593969822E-1,8.100298778E0
2.585865779E0,-3.345989943E0,7.355696201E0,5.593969822E-1,8.100298778E0
2.589804472E0,-3.137187004E0,8.513915062E0,9.531299770E-2,9.074016561E0
2.593744549E0,-3.137187004E0,8.513915062E0,9.531299770E-2,9.074016561E0
2.597684472E0,-3.137187004E0,8.513915062E0,9.531299770E-2,9.074016561E0
2.601624472E0,-3.137187004E0,8.513915062E0,9.531299770E-2,9.074016561E0
2.605564779E0,-3.137187004E0,8.513915062E0,9.531299770E-2,9.074016561E0
2.609504799E0,-2.740324974E0,7.573463917E0,-1.095237017E0,8.128116681E0
2.613445338E0,-2.740324974E0,7.573463917E0,-1.095237017E0,8.128116681E0
2.617385723E0,-2.740324974E0,7.573463917E0,-1.095237017E0,8.128116681E0
2.621325962E0,-2.740324974E0,7.573463917E0,-1.095237017E0,8.128116681E0
2.625266039E0,-2.740324974E0,7.573463917E0,-1.095237017E0,8.128116681E0
2.629206039E0,-3.864751101E0,4.097317219E0,-1.914515018E0,5.948922358E0
2.633146270E0,-3.864751101E0,4.097317219E0,-1.914515018E0,5.948922358E0
2.637086347E0,-3.864751101E0,4.097317219E0,-1.914515018E0,5.948922358E0
2.641026655E0,-3.864751101E0,4.097317219E0,-1.914515018E0,5.948922358E0
2.644966962E0,-3.864751101E0,4.097317219E0,-1.914515018E0,5.948922358E0
2.648907270E0,-3.921722889E0,1.016352057E0,-2.283235073E0,4.650381094E0
2.652847809E0,-3.921722889E0,1.016352057E0,-2.283235073E0,4.650381094E0
2.656788135E0,-3.921722889E0,1.016352057E0,-2.283235073E0,4.650381094E0
2.660728135E0,-3.921722889E0,1.016352057E0,-2.283235073E0,4.650381094E0
2.664668520E0,-3.921722889E0,1.016352057E0,-2.283235073E0,4.650381094E0
2.668609361E0,-4.032507896E0,-1.468418002E0,-3.079619884E0,5.282180421E0
2.672549746E0,-4.032507896E0,-1.468418002E0,-3.079619884E0,5.282180421E0
2.676490053E0,-4.032507896E0,-1.468418002E0,-3.079619884E0,5.282180421E0
2.680430068E0,-4.032507896E0,-1.468418002E0,-3.079619884E0,5.282180421E0
2.684370299E0,-4.032507896E0,-1.468418002E0,-3.079619884E0,5.282180421E0
2.688310607E0,-3.490202904E0,-3.204117060E0,-2.719002962E0,5.462678789E0
2.692250689E0,-3.490202904E0,-3.204117060E0,-2.719002962E0,5.462678789E0
2.696190996E0,-3.490202904E0,-3.204117060E0,-2.719002962E0,5.462678789E0
2.700132458E0,-3.490202904E0,-3.204117060E0,-2.719002962E0,5.462678789E0
2.704072255E0,-3.490202904E0,-3.204117060E0,-2.719002962E0,5.462678789E0
2.708012255E0,-2.371772051E0,-4.928120136E0,5.385779738E-1,5.495610701E0
2.711952871E0,-2.371772051E0,-4.928120136E0,5.385779738E-1,5.495610701E0
2.716547871E0,-2.371772051E0,-4.928120136E0,5.385779738E-1,5.495610701E0
2.719833717E0,-2.371772051E0,-4.928120136E0,5.385779738E-1,5.495610701E0
2.723774101E0,-2.371772051E0,-4.928120136E0,5.385779738E-1,5.495610701E0
2.727714972E0,-2.302886963E0,-5.522682190E0,6.376460195E-1,6.017466193E0
2.731655049E0,-2.302886963E0,-5.522682190E0,6.376460195E-1,6.017466193E0
2.735595895E0,-2.302886963E0,-5.522682190E0,6.376460195E-1,6.017466193E0
2.739535963E0,-2.302886963E0,-5.522682190E0,6.376460195E-1,6.017466193E0
2.743475963E0,-2.302886963E0,-5.522682190E0,6.376460195E-1,6.017466193E0
2.747416501E0,-2.186777115E0,-5.065508842E0,5.549119711E-1,5.545205251E0
2.751356563E0,-2.186777115E0,-5.065508842E0,5.549119711E-1,5.545205251E0
2.755295255E0,-2.186777115E0,-5.065508842E0,5.549119711E-1,5.545205251E0
2.759235255E0,-2.186777115E0,-5.065508842E0,5.549119711E-1,5.545205251E0
2.763175626E0,-2.186777115E0,-5.065508842E0,5.549119711E-1,5.545205251E0
2.767115626E0,-2.186777115E0,-5.065508842E0,5.549119711E-1,5.545205251E0
2.771055626E0,-2.213781118E0,-4.385324001E0,-7.398790121E-1,4.967827935E0
2.774995631E0,-2.213781118E0,-4.385324001E0,-7.398790121E-1,4.967827935E0
2.778935631E0,-2.213781118E0,-4.385324001E0,-7.398790121E-1,4.967827935E0
2.782875862E0,-2.213781118E0,-4.385324001E0,-7.398790121E-1,4.967827935E0
2.786815645E0,-2.213781118E0,-4.385324001E0,-7.398790121E-1,4.967827935E0
2.790755876E0,-2.519218922E0,-4.680232048E0,-1.019405007E0,5.412044213E0
2.794695337E0,-2.519218922E0,-4.680232048E0,-1.019405007E0,5.412044213E0
2.798635059E0,-2.519218922E0,-4.680232048E0,-1.019405007E0,5.412044213E0
2.802574982E0,-2.519218922E0,-4.680232048E0,-1.019405007E0,5.412044213E0
2.806515289E0,-2.519218922E0,-4.680232048E0,-1.019405007E0,5.412044213E0
2.810455044E0,-3.335663080E0,-5.009482861E0,-2.081233025E0,6.368131407E0
2.814394967E0,-3.335663080E0,-5.009482861E0,-2.081233025E0,6.368131407E0
2.818334967E0,-3.335663080E0,-5.009482861E0,-2.081233025E0,6.368131407E0
2.822275251E0,-3.335663080E0,-5.009482861E0,-2.081233025E0,6.368131407E0
2.826215251E0,-3.335663080E0,-5.009482861E0,-2.081233025E0,6.368131407E0
2.830155558E0,-3.742706060E0,-5.738215923E0,-1.856538057E0,7.098007058E0
2.834095558E0,-3.742706060E0,-5.738215923E0,-1.856538057E0,7.098007058E0
2.838035943E0,-3.742706060E0,-5.738215923E0,-1.856538057E0,7.098007058E0
2.841978020E0,-3.742706060E0,-5.738215923E0,-1.856538057E0,7.098007058E0
2.845917698E0,-3.742706060E0,-5.738215923E0,-1.856538057E0,7.098007058E0
2.849857160E0,-2.926023006E0,-5.583590031E0,1.398748040E0,6.457134376E0
2.853796544E0,-2.926023006E0,-5.583590031E0,1.398748040E0,6.457134376E0
2.857736515E0,-2.926023006E0,-5.583590031E0,1.398748040E0,6.457134376E0
2.861676823E0,-2.926023006E0,-5.583590031E0,1.398748040E0,6.457134376E0
2.865616515E0,-2.926023006E0,-5.583590031E0,1.398748040E0,6.457134376E0
2.869556443E0,-6.003460288E-1,-3.857477903E0,7.861692905E0,8.777628750E0
2.873494674E0,-6.003460288E-1,-3.857477903E0,7.861692905E0,8.777628750E0
2.877434674E0,-6.003460288E-1,-3.857477903E0,7.861692905E0,8.777628750E0
2.881374972E0,-6.003460288E-1,-3.857477903E0,7.861692905E0,8.777628750E0
2.885314895E0,-6.003460288E-1,-3.857477903E0,7.861692905E0,8.777628750E0
2.889255203E0,7.336822033E0,-1.164888024E0,1.542837238E1,1.712368524E1
2.893195500E0,7.336822033E0,-1.164888024E0,1.542837238E1,1.712368524E1
2.897135270E0,7.336822033E0,-1.164888024E0,1.542837238E1,1.712368524E1
2.901075193E0,7.336822033E0,-1.164888024E0,1.542837238E1,1.712368524E1
2.905014645E0,7.336822033E0,-1.164888024E0,1.542837238E1,1.712368524E1
2.908953953E0,1.572029018E1,1.425647974E0,-1.894710064E-1,1.578593978E1
2.912923842E0,1.572029018E1,1.425647974E0,-1.894710064E-1,1.578593978E1
2.916893707E0,1.572029018E1,1.425647974E0,-1.894710064E-1,1.578593978E1
2.920773707E0,1.572029018E1,1.425647974E0,-1.894710064E-1,1.578593978E1
2.924715553E0,1.572029018E1,1.425647974E0,-1.894710064E-1,1.578593978E1
2.928656102E0,1.889315414E1,4.494950771E0,-7.057700306E-2,1.942062916E1
2.932596179E0,1.889315414E1,4.494950771E0,-7.057700306E-2,1.942062916E1
2.936536486E0,1.889315414E1,4.494950771E0,-7.057700306E-2,1.942062916E1
2.940477025E0,1.889315414E1,4.494950771E0,-7.057700306E-2,1.942062916E1
2.944417025E0,1.889315414E1,4.494950771E0,-7.057700306E-2,1.942062916E1
2.948357102E0,1.987464523E1,4.690824032E0,5.481537819E0,2.114361866E1
2.952297102E0,1.987464523E1,4.690824032E0,5.481537819E0,2.114361866E1
2.956237410E0,1.987464523E1,4.690824032E0,5.481537819E0,2.114361866E1
2.960177410E0,1.987464523E1,4.690824032E0,5.481537819E0,2.114361866E1
2.964117717E0,1.987464523E1,4.690824032E0,5.481537819E0,2.114361866E1
2.968058025E0,1.307717323E1,-1.853252053E0,1.520086050E0,1.329502405E1
2.971998025E0,1.307717323E1,-1.853252053E0,1.520086050E0,1.329502405E1
2.975937991E0,1.307717323E1,-1.853252053E0,1.520086050E0,1.329502405E1
2.979878606E0,1.307717323E1,-1.853252053E0,1.520086050E0,1.329502405E1
2.983818837E0,1.307717323E1,-1.853252053E0,1.520086050E0,1.329502405E1
2.987758620E0,1.307717323E1,-1.853252053E0,1.520086050E0,1.329502405E1
2.991698620E0,4.795230865E0,-1.571660995E0,1.512079984E-1,5.048487021E0
2.995638620E0,4.795230865E0,-1.571660995E0,1.512079984E-1,5.048487021E0
2.999578866E0,4.795230865E0,-1.571660995E0,1.512079984E-1,5.048487021E0
3.003518866E0,4.795230865E0,-1.571660995E0,1.512079984E-1,5.048487021E0
3.007459174E0,2.918968916E0,3.091589928E0,2.148540020E0,4.763877835E0
3.011399501E0,2.918968916E0,3.091589928E0,2.148540020E0,4.763877835E0
3.015339501E0,2.918968916E0,3.091589928E0,2.148540020E0,4.763877835E0
3.019279270E0,2.918968916E0,3.091589928E0,2.148540020E0,4.763877835E0
3.023219270E0,2.918968916E0,3.091589928E0,2.148540020E0,4.763877835E0
3.027158655E0,2.918968916E0,3.091589928E0,2.148540020E0,4.763877835E0
3.031098039E0,6.170020103E0,7.362737179E0,1.068374991E0,9.665426631E0
3.035036496E0,6.170020103E0,7.362737179E0,1.068374991E0,9.665426631E0
3.038978342E0,6.170020103E0,7.362737179E0,1.068374991E0,9.665426631E0
3.042918342E0,6.170020103E0,7.362737179E0,1.068374991E0,9.665426631E0
3.046858371E0,6.170020103E0,7.362737179E0,1.068374991E0,9.665426631E0
3.050798679E0,-6.997972012E0,2.521495104E0,-3.198842049E0,8.097045158E0
3.054738371E0,-6.997972012E0,2.521495104E0,-3.198842049E0,8.097045158E0
3.058678679E0,-6.997972012E0,2.521495104E0,-3.198842049E0,8.097045158E0
3.062618371E0,-6.997972012E0,2.521495104E0,-3.198842049E0,8.097045158E0
3.066557986E0,-6.997972012E0,2.521495104E0,-3.198842049E0,8.097045158E0
3.070497761E0,-9.308630943E0,-2.938030958E0,-5.970098972E0,1.144223395E1
3.074437684E0,-9.308630943E0,-2.938030958E0,-5.970098972E0,1.144223395E1
3.078377145E0,-9.308630943E0,-2.938030958E0,-5.970098972E0,1.144223395E1
3.082316842E0,-9.308630943E0,-2.938030958E0,-5.970098972E0,1.144223395E1
3.086256457E0,-9.308630943E0,-2.938030958E0,-5.970098972E0,1.144223395E1
3.090195842E0,-9.712722778E0,-2.705167055E0,-6.301303864E0,1.188954763E1
3.094135337E0,-9.712722778E0,-2.705167055E0,-6.301303864E0,1.188954763E1
3.098075260E0,-9.712722778E0,-2.705167055E0,-6.301303864E0,1.188954763E1
3.102015337E0,-9.712722778E0,-2.705167055E0,-6.301303864E0,1.188954763E1
3.105956178E0,-9.712722778E0,-2.705167055E0,-6.301303864E0,1.188954763E1
3.109895948E0,-1.042851353E1,9.084830284E-1,-8.010489941E-1,1.049861492E1
3.113835573E0,-1.042851353E1,9.084830284E-1,-8.010489941E-1,1.049861492E1
3.117775034E0,-1.042851353E1,9.084830284E-1,-8.010489941E-1,1.049861492E1
3.121715265E0,-1.042851353E1,9.084830284E-1,-8.010489941E-1,1.049861492E1
3.125653188E0,-1.042851353E1,9.084830284E-1,-8.010489941E-1,1.049861492E1
3.129593135E0,-9.118210793E0,2.854119062E0,-1.964503050E0,9.754334212E0
3.133533520E0,-9.118210793E0,2.854119062E0,-1.964503050E0,9.754334212E0
3.137473751E0,-9.118210793E0,2.854119062E0,-1.964503050E0,9.754334212E0
3.141415093E0,-9.118210793E0,2.854119062E0,-1.964503050E0,9.754334212E0
3.145354785E0,-9.118210793E0,2.854119062E0,-1.964503050E0,9.754334212E0
3.149294708E0,-7.264650822E0,3.281936884E0,-1.974200085E-2,7.971615333E0
3.153234477E0,-7.264650822E0,3.281936884E0,-1.974200085E-2,7.971615333E0
3.157173785E0,-7.264650822E0,3.281936884E0,-1.974200085E-2,7.971615333E0
3.161111939E0,-7.264650822E0,3.281936884E0,-1.974200085E-2,7.971615333E0
3.165051400E0,-7.264650822E0,3.281936884E0,-1.974200085E-2,7.971615333E0
3.168990785E0,-5.516963005E0,2.585747957E0,-2.701674938E0,6.664984679E0
3.172930477E0,-5.516963005E0,2.585747957E0,-2.701674938E0,6.664984679E0
3.176870189E0,-5.516963005E0,2.585747957E0,-2.701674938E0,6.664984679E0
3.180809881E0,-5.516963005E0,2.585747957E0,-2.701674938E0,6.664984679E0
3.184749804E0,-5.516963005E0,2.585747957E0,-2.701674938E0,6.664984679E0
3.188689501E0,-4.099404812E0,2.497448921E0,-3.103189945E0,5.715956505E0
3.192628963E0,-4.099404812E0,2.497448921E0,-3.103189945E0,5.715956505E0
3.196568655E0,-4.099404812E0,2.497448921E0,-3.103189945E0,5.715956505E0
3.200508025E0,-4.099404812E0,2.497448921E0,-3.103189945E0,5.715956505E0
3.204447409E0,-4.099404812E0,2.497448921E0,-3.103189945E0,5.715956505E0
3.208387025E0,-2.845850945E0,3.704464912E0,-2.761822939E0,5.426747998E0
3.212326395E0,-2.845850945E0,3.704464912E0,-2.761822939E0,5.426747998E0
3.216265857E0,-2.845850945E0,3.704464912E0,-2.761822939E0,5.426747998E0
3.220205549E0,-2.845850945E0,3.704464912E0,-2.761822939E0,5.426747998E0
3.224145165E0,-2.845850945E0,3.704464912E0,-2.761822939E0,5.426747998E0
3.228083319E0,-1.817847013E0,4.727215767E0,-2.556058884E0,5.673144956E0
3.232023319E0,-1.817847013E0,4.727215767E0,-2.556058884E0,5.673144956E0
3.235963361E0,-1.817847013E0,4.727215767E0,-2.556058884E0,5.673144956E0
3.239903285E0,-1.817847013E0,4.727215767E0,-2.556058884E0,5.673144956E0
3.243843285E0,-1.817847013E0,4.727215767E0,-2.556058884E0,5.673144956E0
3.247782746E0,5.383710265E-1,3.534982920E0,-2.646228075E0,4.448423387E0
3.251722977E0,5.383710265E-1,3.534982920E0,-2.646228075E0,4.448423387E0
3.255662977E0,5.383710265E-1,3.534982920E0,-2.646228075E0,4.448423387E0
3.259602977E0,5.383710265E-1,3.534982920E0,-2.646228075E0,4.448423387E0
3.263542746E0,5.383710265E-1,3.534982920E0,-2.646228075E0,4.448423387E0
3.267482977E0,2.733895063E0,2.032318115E0,-2.957979918E0,4.511556753E0
3.271422732E0,2.733895063E0,2.032318115E0,-2.957979918E0,4.511556753E0
3.275363271E0,2.733895063E0,2.032318115E0,-2.957979918E0,4.511556753E0
3.279302732E0,2.733895063E0,2.032318115E0,-2.957979918E0,4.511556753E0
3.283242333E0,2.733895063E0,2.032318115E0,-2.957979918E0,4.511556753E0
3.287182409E0,2.733895063E0,2.032318115E0,-2.957979918E0,4.511556753E0
3.291122409E0,4.889777184E0,-2.133899927E-2,-2.496094942E0,5.490069783E0
3.295062420E0,4.889777184E0,-2.133899927E-2,-2.496094942E0,5.490069783E0
3.299002420E0,4.889777184E0,-2.133899927E-2,-2.496094942E0,5.490069783E0
3.302942343E0,4.889777184E0,-2.133899927E-2,-2.496094942E0,5.490069783E0
3.306882088E0,4.889777184E0,-2.133899927E-2,-2.496094942E0,5.490069783E0
3.310822011E0,5.135774136E0,-1.829988956E0,-9.817479849E-1,5.539753123E0
3.314762934E0,5.135774136E0,-1.829988956E0,-9.817479849E-1,5.539753123E0
3.318702300E0,5.135774136E0,-1.829988956E0,-9.817479849E-1,5.539753123E0
3.322641992E0,5.135774136E0,-1.829988956E0,-9.817479849E-1,5.539753123E0
3.326581146E0,5.135774136E0,-1.829988956E0,-9.817479849E-1,5.539753123E0
3.330520823E0,5.645884037E0,-3.836464882E0,8.711109757E-1,6.881373677E0
3.334460515E0,5.645884037E0,-3.836464882E0,8.711109757E-1,6.881373677E0
3.338400439E0,5.645884037E0,-3.836464882E0,8.711109757E-1,6.881373677E0
3.342339900E0,5.645884037E0,-3.836464882E0,8.711109757E-1,6.881373677E0
3.346279900E0,5.645884037E0,-3.836464882E0,8.711109757E-1,6.881373677E0
3.350220208E0,4.557634830E0,-4.723591805E0,1.866844058E0,6.824182114E0
3.354160751E0,4.557634830E0,-4.723591805E0,1.866844058E0,6.824182114E0
3.358100521E0,4.557634830E0,-4.723591805E0,1.866844058E0,6.824182114E0
3.362040521E0,4.557634830E0,-4.723591805E0,1.866844058E0,6.824182114E0
3.365980732E0,4.557634830E0,-4.723591805E0,1.866844058E0,6.824182114E0
3.369920425E0,2.579700947E0,-4.191142082E0,9.764779806E-1,5.017373633E0
3.373860425E0,2.579700947E0,-4.191142082E0,9.764779806E-1,5.017373633E0
3.377799794E0,2.579700947E0,-4.191142082E0,9.764779806E-1,5.017373633E0
3.381738948E0,2.579700947E0,-4.191142082E0,9.764779806E-1,5.017373633E0
3.385678871E0,2.579700947E0,-4.191142082E0,9.764779806E-1,5.017373633E0
3.389618347E0,1.113942981E0,-3.545624018E0,-2.227200009E-2,3.716559522E0
3.393558039E0,1.113942981E0,-3.545624018E0,-2.227200009E-2,3.716559522E0
3.397498039E0,1.113942981E0,-3.545624018E0,-2.227200009E-2,3.716559522E0
3.401437655E0,1.113942981E0,-3.545624018E0,-2.227200009E-2,3.716559522E0
3.405377963E0,1.113942981E0,-3.545624018E0,-2.227200009E-2,3.716559522E0
3.409317963E0,3.725099862E-1,-2.254858017E0,2.174440026E-1,2.295741767E0
3.413258054E0,3.725099862E-1,-2.254858017E0,2.174440026E-1,2.295741767E0
3.417197746E0,3.725099862E-1,-2.254858017E0,2.174440026E-1,2.295741767E0
3.421137669E0,3.725099862E-1,-2.254858017E0,2.174440026E-1,2.295741767E0
3.425077765E0,3.725099862E-1,-2.254858017E0,2.174440026E-1,2.295741767E0
3.429018073E0,4.315999802E-3,-9.593340158E-1,4.763400182E-2,9.605255749E-1
3.432958304E0,4.315999802E-3,-9.593340158E-1,4.763400182E-2,9.605255749E-1
3.436898073E0,4.315999802E-3,-9.593340158E-1,4.763400182E-2,9.605255749E-1
3.440837996E0,4.315999802E-3,-9.593340158E-1,4.763400182E-2,9.605255749E-1
3.444776150E0,4.315999802E-3,-9.593340158E-1,4.763400182E-2,9.605255749E-1
3.448716169E0,3.539000079E-2,5.400000140E-2,-2.336259931E-1,2.423830790E-1
3.452656246E0,3.539000079E-2,5.400000140E-2,-2.336259931E-1,2.423830790E-1
3.456596554E0,3.539000079E-2,5.400000140E-2,-2.336259931E-1,2.423830790E-1
3.460536569E0,3.539000079E-2,5.400000140E-2,-2.336259931E-1,2.423830790E-1
3.464477107E0,3.539000079E-2,5.400000140E-2,-2.336259931E-1,2.423830790E-1
3.468417184E0,-1.535199955E-2,7.173290253E-1,-5.578060150E-1,9.088147032E-1
3.472357102E0,-1.535199955E-2,7.173290253E-1,-5.578060150E-1,9.088147032E-1
3.476296871E0,-1.535199955E-2,7.173290253E-1,-5.578060150E-1,9.088147032E-1
3.480236487E0,-1.535199955E-2,7.173290253E-1,-5.578060150E-1,9.088147032E-1
3.484176174E0,-1.535199955E-2,7.173290253E-1,-5.578060150E-1,9.088147032E-1
3.488116482E0,-3.552420139E-1,6.478220224E-1,-1.013185978E0,1.253960162E0
3.492056559E0,-3.552420139E-1,6.478220224E-1,-1.013185978E0,1.253960162E0
3.495996482E0,-3.552420139E-1,6.478220224E-1,-1.013185978E0,1.253960162E0
3.499936790E0,-3.552420139E-1,6.478220224E-1,-1.013185978E0,1.253960162E0
3.503876251E0,-3.552420139E-1,6.478220224E-1,-1.013185978E0,1.253960162E0
3.507815857E0,-5.793190002E-1,-3.474040031E-1,-1.320191979E0,1.482972322E0
3.511755318E0,-5.793190002E-1,-3.474040031E-1,-1.320191979E0,1.482972322E0
3.515694703E0,-5.793190002E-1,-3.474040031E-1,-1.320191979E0,1.482972322E0
3.519634357E0,-5.793190002E-1,-3.474040031E-1,-1.320191979E0,1.482972322E0
3.523574049E0,-5.793190002E-1,-3.474040031E-1,-1.320191979E0,1.482972322E0
3.527513665E0,-3.089140058E-1,1.938859969E-1,-1.513195992E0,1.556528751E0
3.531453347E0,-3.089140058E-1,1.938859969E-1,-1.513195992E0,1.556528751E0
3.535393039E0,-3.089140058E-1,1.938859969E-1,-1.513195992E0,1.556528751E0
3.539332809E0,-3.089140058E-1,1.938859969E-1,-1.513195992E0,1.556528751E0
3.543272515E0,-3.089140058E-1,1.938859969E-1,-1.513195992E0,1.556528751E0
3.547212207E0,6.621670127E-1,1.341114044E0,-3.517894030E0,3.822647046E0
3.551151900E0,6.621670127E-1,1.341114044E0,-3.517894030E0,3.822647046E0
3.555092116E0,6.621670127E-1,1.341114044E0,-3.517894030E0,3.822647046E0
3.559031886E0,6.621670127E-1,1.341114044E0,-3.517894030E0,3.822647046E0
3.562971578E0,6.621670127E-1,1.341114044E0,-3.517894030E0,3.822647046E0
3.566911588E0,6.621670127E-1,1.341114044E0,-3.517894030E0,3.822647046E0
3.570851511E0,9.571130276E-1,2.709469080E0,-5.145936966E0,5.893891355E0
3.574791280E0,9.571130276E-1,2.709469080E0,-5.145936966E0,5.893891355E0
3.578730972E0,9.571130276E-1,2.709469080E0,-5.145936966E0,5.893891355E0
3.582670972E0,9.571130276E-1,2.709469080E0,-5.145936966E0,5.893891355E0
3.586611202E0,9.571130276E-1,2.709469080E0,-5.145936966E0,5.893891355E0
3.590553054E0,-4.216900095E-2,3.894104958E0,-5.612829924E-1,3.934573705E0
3.594493130E0,-4.216900095E-2,3.894104958E0,-5.612829924E-1,3.934573705E0
3.598433361E0,-4.216900095E-2,3.894104958E0,-5.612829924E-1,3.934573705E0
3.602373135E0,-4.216900095E-2,3.894104958E0,-5.612829924E-1,3.934573705E0
3.606312520E0,-4.216900095E-2,3.894104958E0,-5.612829924E-1,3.934573705E0
3.610252520E0,4.263500124E-2,3.753802061E0,3.204722881E0,4.935898743E0
3.614192770E0,4.263500124E-2,3.753802061E0,3.204722881E0,4.935898743E0
3.618132847E0,4.263500124E-2,3.753802061E0,3.204722881E0,4.935898743E0
3.622072847E0,4.263500124E-2,3.753802061E0,3.204722881E0,4.935898743E0
3.626013078E0,4.263500124E-2,3.753802061E0,3.204722881E0,4.935898743E0
3.629953078E0,2.812490940E0,2.429790974E0,5.298206806E0,6.471861002E0
3.633892847E0,2.812490940E0,2.429790974E0,5.298206806E0,6.471861002E0
3.637832534E0,2.812490940E0,2.429790974E0,5.298206806E0,6.471861002E0
3.641772226E0,2.812490940E0,2.429790974E0,5.298206806E0,6.471861002E0
3.645711919E0,2.812490940E0,2.429790974E0,5.298206806E0,6.471861002E0
3.649651515E0,3.138133049E0,7.405080199E-1,5.548851967E0,6.417631129E0
3.653591284E0,3.138133049E0,7.405080199E-1,5.548851967E0,6.417631129E0
3.657531284E0,3.138133049E0,7.405080199E-1,5.548851967E0,6.417631129E0
3.661470890E0,3.138133049E0,7.405080199E-1,5.548851967E0,6.417631129E0
3.665410274E0,3.138133049E0,7.405080199E-1,5.548851967E0,6.417631129E0
3.669349428E0,3.059693098E0,-3.257099912E-2,4.026043892E0,5.056857932E0
3.673289414E0,3.059693098E0,-3.257099912E-2,4.026043892E0,5.056857932E0
3.677229107E0,3.059693098E0,-3.257099912E-2,4.026043892E0,5.056857932E0
3.681168799E0,3.059693098E0,-3.257099912E-2,4.026043892E0,5.056857932E0
3.685108752E0,3.059693098E0,-3.257099912E-2,4.026043892E0,5.056857932E0
3.689047829E0,5.693699718E-1,2.014209032E0,2.524111032E0,3.279078635E0
3.692986983E0,5.693699718E-1,2.014209032E0,2.524111032E0,3.279078635E0
3.696926376E0,5.693699718E-1,2.014209032E0,2.524111032E0,3.279078635E0
3.700865684E0,5.693699718E-1,2.014209032E0,2.524111032E0,3.279078635E0
3.704805146E0,5.693699718E-1,2.014209032E0,2.524111032E0,3.279078635E0
3.708745395E0,-1.506338954E0,4.945598125E0,6.304879785E-1,5.208215909E0
3.712715914E0,-1.506338954E0,4.945598125E0,6.304879785E-1,5.208215909E0
3.716686397E0,-1.506338954E0,4.945598125E0,6.304879785E-1,5.208215909E0
3.720564472E0,-1.506338954E0,4.945598125E0,6.304879785E-1,5.208215909E0
3.724504165E0,-1.506338954E0,4.945598125E0,6.304879785E-1,5.208215909E0
3.728443549E0,-3.102474928E0,7.340316772E0,-6.639630198E-1,7.996652293E0
3.732382992E0,-3.102474928E0,7.340316772E0,-6.639630198E-1,7.996652293E0
3.736322377E0,-3.102474928E0,7.340316772E0,-6.639630198E-1,7.996652293E0
3.740262377E0,-3.102474928E0,7.340316772E0,-6.639630198E-1,7.996652293E0
3.744202612E0,-3.102474928E0,7.340316772E0,-6.639630198E-1,7.996652293E0
3.748142689E0,-3.490645885E0,8.791169167E0,-2.336401939E0,9.743102075E0
3.752082612E0,-3.490645885E0,8.791169167E0,-2.336401939E0,9.743102075E0
3.756022064E0,-3.490645885E0,8.791169167E0,-2.336401939E0,9.743102075E0
3.759962064E0,-3.490645885E0,8.791169167E0,-2.336401939E0,9.743102075E0
3.763901987E0,-3.490645885E0,8.791169167E0,-2.336401939E0,9.743102075E0
3.767841694E0,-4.330431938E0,9.270557404E0,-5.096899033E0,1.143128405E1
3.771781464E0,-4.330431938E0,9.270557404E0,-5.096899033E0,1.143128405E1
3.775720848E0,-4.330431938E0,9.270557404E0,-5.096899033E0,1.143128405E1
3.779660766E0,-4.330431938E0,9.270557404E0,-5.096899033E0,1.143128405E1
3.783599843E0,-4.330431938E0,9.270557404E0,-5.096899033E0,1.143128405E1
3.787538997E0,-4.330431938E0,9.270557404E0,-5.096899033E0,1.143128405E1
3.791478372E0,-4.706595898E0,5.618501186E0,-5.352464199E0,9.075707880E0
3.795418372E0,-4.706595898E0,5.618501186E0,-5.352464199E0,9.075707880E0
3.799357987E0,-4.706595898E0,5.618501186E0,-5.352464199E0,9.075707880E0
3.803297737E0,-4.706595898E0,5.618501186E0,-5.352464199E0,9.075707880E0
3.807237660E0,-4.706595898E0,5.618501186E0,-5.352464199E0,9.075707880E0
3.811177122E0,-4.635319233E0,1.772483945E0,-4.550708771E0,6.733263254E0
3.815117300E0,-4.635319233E0,1.772483945E0,-4.550708771E0,6.733263254E0
3.819057069E0,-4.635319233E0,1.772483945E0,-4.550708771E0,6.733263254E0
3.822996992E0,-4.635319233E0,1.772483945E0,-4.550708771E0,6.733263254E0
3.826936454E0,-4.635319233E0,1.772483945E0,-4.550708771E0,6.733263254E0
3.830875838E0,-4.195720196E0,-1.229856014E0,-3.596834898E0,5.661610642E0
3.834815761E0,-4.195720196E0,-1.229856014E0,-3.596834898E0,5.661610642E0
3.838754852E0,-4.195720196E0,-1.229856014E0,-3.596834898E0,5.661610642E0
3.842694314E0,-4.195720196E0,-1.229856014E0,-3.596834898E0,5.661610642E0
3.846634929E0,-4.195720196E0,-1.229856014E0,-3.596834898E0,5.661610642E0
3.850574540E0,-3.065891027E0,-4.109131813E0,1.368775964E0,5.306430032E0
3.854514001E0,-3.065891027E0,-4.109131813E0,1.368775964E0,5.306430032E0
3.858453617E0,-3.065891027E0,-4.109131813E0,1.368775964E0,5.306430032E0
3.862393064E0,-3.065891027E0,-4.109131813E0,1.368775964E0,5.306430032E0
3.866332449E0,-3.065891027E0,-4.109131813E0,1.368775964E0,5.306430032E0
3.870271833E0,-1.723651052E0,-5.899381161E0,4.548064232E0,7.645819726E0
3.874211454E0,-1.723651052E0,-5.899381161E0,4.548064232E0,7.645819726E0
3.878150838E0,-1.723651052E0,-5.899381161E0,4.548064232E0,7.645819726E0
3.882090300E0,-1.723651052E0,-5.899381161E0,4.548064232E0,7.645819726E0
3.886029905E0,-1.723651052E0,-5.899381161E0,4.548064232E0,7.645819726E0
3.889969982E0,-2.351429939E0,-5.619795799E0,1.872846007E0,6.373294262E0
3.893909982E0,-2.351429939E0,-5.619795799E0,1.872846007E0,6.373294262E0
3.897849915E0,-2.351429939E0,-5.619795799E0,1.872846007E0,6.373294262E0
3.901788146E0,-2.351429939E0,-5.619795799E0,1.872846007E0,6.373294262E0
3.905727838E0,-2.351429939E0,-5.619795799E0,1.872846007E0,6.373294262E0
3.909667771E0,-2.723624945E0,-4.412823200E0,-5.393810272E-1,5.213643000E0
3.913607771E0,-2.723624945E0,-4.412823200E0,-5.393810272E-1,5.213643000E0
3.917547540E0,-2.723624945E0,-4.412823200E0,-5.393810272E-1,5.213643000E0
3.921487483E0,-2.723624945E0,-4.412823200E0,-5.393810272E-1,5.213643000E0
3.925427483E0,-2.723624945E0,-4.412823200E0,-5.393810272E-1,5.213643000E0
3.929367560E0,-2.339205027E0,-3.813860893E0,-1.707286954E0,4.788762242E0
3.933307862E0,-2.339205027E0,-3.813860893E0,-1.707286954E0,4.788762242E0
3.937248170E0,-2.339205027E0,-3.813860893E0,-1.707286954E0,4.788762242E0
3.941188093E0,-2.339205027E0,-3.813860893E0,-1.707286954E0,4.788762242E0
3.945128165E0,-2.339205027E0,-3.813860893E0,-1.707286954E0,4.788762242E0
3.949067858E0,-2.580404043E0,-4.161482811E0,-1.732805967E0,5.194135225E0
3.953007242E0,-2.580404043E0,-4.161482811E0,-1.732805967E0,5.194135225E0
3.956946900E0,-2.580404043E0,-4.161482811E0,-1.732805967E0,5.194135225E0
3.960887131E0,-2.580404043E0,-4.161482811E0,-1.732805967E0,5.194135225E0
3.964827131E0,-2.580404043E0,-4.161482811E0,-1.732805967E0,5.194135225E0
3.968767160E0,-3.780441999E0,-4.609899998E0,-1.587775946E0,6.169599027E0
3.972706853E0,-3.780441999E0,-4.609899998E0,-1.587775946E0,6.169599027E0
3.976646545E0,-3.780441999E0,-4.609899998E0,-1.587775946E0,6.169599027E0
3.980586535E0,-3.780441999E0,-4.609899998E0,-1.587775946E0,6.169599027E0
3.984526843E0,-3.780441999E0,-4.609899998E0,-1.587775946E0,6.169599027E0
3.988466535E0,-4.656144142E0,-5.211576939E0,-9.881500006E-1,7.058091306E0
3.992406916E0,-4.656144142E0,-5.211576939E0,-9.881500006E-1,7.058091306E0
3.996348069E0,-4.656144142E0,-5.211576939E0,-9.881500006E-1,7.058091306E0
4.000287762E0,-4.656144142E0,-5.211576939E0,-9.881500006E-1,7.058091306E0
4.004227271E0,-4.656144142E0,-5.211576939E0,-9.881500006E-1,7.058091306E0
4.008167502E0,-4.408080101E0,-5.543746948E0,2.109841108E0,7.390245592E0
4.012107579E0,-4.408080101E0,-5.543746948E0,2.109841108E0,7.390245592E0
4.016047487E0,-4.408080101E0,-5.543746948E0,2.109841108E0,7.390245592E0
4.019987487E0,-4.408080101E0,-5.543746948E0,2.109841108E0,7.390245592E0
4.023927564E0,-4.408080101E0,-5.543746948E0,2.109841108E0,7.390245592E0
4.027867786E0,-2.716878891E0,-4.451348782E0,5.449847221E0,7.542994871E0
4.031808093E0,-2.716878891E0,-4.451348782E0,5.449847221E0,7.542994871E0
4.035748170E0,-2.716878891E0,-4.451348782E0,5.449847221E0,7.542994871E0
4.039688396E0,-2.716878891E0,-4.451348782E0,5.449847221E0,7.542994871E0
4.043626935E0,-2.716878891E0,-4.451348782E0,5.449847221E0,7.542994871E0
4.047567242E0,1.540114045E0,-2.542387009E0,9.639899254E0,1.008778175E1
4.051507487E0,1.540114045E0,-2.542387009E0,9.639899254E0,1.008778175E1
4.055447872E0,1.540114045E0,-2.542387009E0,9.639899254E0,1.008778175E1
4.059388179E0,1.540114045E0,-2.542387009E0,9.639899254E0,1.008778175E1
4.063328103E0,1.540114045E0,-2.542387009E0,9.639899254E0,1.008778175E1
4.067268103E0,1.540114045E0,-2.542387009E0,9.639899254E0,1.008778175E1
4.071208410E0,1.287818146E1,-5.381299928E-2,5.169293880E0,1.387703328E1
4.075147204E0,1.287818146E1,-5.381299928E-2,5.169293880E0,1.387703328E1
4.079087588E0,1.287818146E1,-5.381299928E-2,5.169293880E0,1.387703328E1
4.083027819E0,1.287818146E1,-5.381299928E-2,5.169293880E0,1.387703328E1
4.086967891E0,1.287818146E1,-5.381299928E-2,5.169293880E0,1.387703328E1
4.090908737E0,1.983753395E1,3.655374050E0,-2.994333982E0,2.039253659E1
4.094849968E0,1.983753395E1,3.655374050E0,-2.994333982E0,2.039253659E1
4.098790266E0,1.983753395E1,3.655374050E0,-2.994333982E0,2.039253659E1
4.102730267E0,1.983753395E1,3.655374050E0,-2.994333982E0,2.039253659E1
4.106670574E0,1.983753395E1,3.655374050E0,-2.994333982E0,2.039253659E1
4.110611171E0,2.042877769E1,9.900321007E0,4.023693085E0,2.305518207E1
4.114551248E0,2.042877769E1,9.900321007E0,4.023693085E0,2.305518207E1
4.118491786E0,2.042877769E1,9.900321007E0,4.023693085E0,2.305518207E1
4.122431819E0,2.042877769E1,9.900321007E0,4.023693085E0,2.305518207E1
4.126372127E0,2.042877769E1,9.900321007E0,4.023693085E0,2.305518207E1
4.130312127E0,1.436259842E1,1.706532955E0,1.802680016E0,1.457553235E1
4.134252742E0,1.436259842E1,1.706532955E0,1.802680016E0,1.457553235E1
4.138193358E0,1.436259842E1,1.706532955E0,1.802680016E0,1.457553235E1
4.142133742E0,1.436259842E1,1.706532955E0,1.802680016E0,1.457553235E1
4.146072761E0,1.436259842E1,1.706532955E0,1.802680016E0,1.457553235E1
4.150012838E0,7.813123226E0,-4.325665951E0,-1.057389975E0,8.993016959E0
4.153953992E0,7.813123226E0,-4.325665951E0,-1.057389975E0,8.993016959E0
4.157894349E0,7.813123226E0,-4.325665951E0,-1.057389975E0,8.993016959E0
4.161834656E0,7.813123226E0,-4.325665951E0,-1.057389975E0,8.993016959E0
4.165774887E0,7.813123226E0,-4.325665951E0,-1.057389975E0,8.993016959E0
4.169714675E0,2.279181004E0,-4.681582928E0,-3.936552048E0,6.527505403E0
4.173654598E0,2.279181004E0,-4.681582928E0,-3.936552048E0,6.527505403E0
4.177594598E0,2.279181004E0,-4.681582928E0,-3.936552048E0,6.527505403E0
4.181534694E0,2.279181004E0,-4.681582928E0,-3.936552048E0,6.527505403E0
4.185475848E0,2.279181004E0,-4.681582928E0,-3.936552048E0,6.527505403E0
4.189415310E0,8.148049712E-1,-5.494700074E-1,-6.391689777E-1,1.172331614E0
4.193355622E0,8.148049712E-1,-5.494700074E-1,-6.391689777E-1,1.172331614E0
4.197295622E0,8.148049712E-1,-5.494700074E-1,-6.391689777E-1,1.172331614E0
4.201235853E0,8.148049712E-1,-5.494700074E-1,-6.391689777E-1,1.172331614E0
4.205175853E0,8.148049712E-1,-5.494700074E-1,-6.391689777E-1,1.172331614E0
4.209116161E0,4.493970871E0,5.593043804E0,3.814673901E0,8.125863040E0
4.213056161E0,4.493970871E0,5.593043804E0,3.814673901E0,8.125863040E0
4.216996252E0,4.493970871E0,5.593043804E0,3.814673901E0,8.125863040E0
4.220937790E0,4.493970871E0,5.593043804E0,3.814673901E0,8.125863040E0
4.224878098E0,4.493970871E0,5.593043804E0,3.814673901E0,8.125863040E0
4.228818671E0,-4.520199776E0,9.290171623E0,5.510798931E0,1.170932960E1
4.232758978E0,-4.520199776E0,9.290171623E0,5.510798931E0,1.170932960E1
4.236698055E0,-4.520199776E0,9.290171623E0,5.510798931E0,1.170932960E1
4.240638151E0,-4.520199776E0,9.290171623E0,5.510798931E0,1.170932960E1
4.244578690E0,-4.520199776E0,9.290171623E0,5.510798931E0,1.170932960E1
4.248519382E0,-7.991975784E0,1.674528003E0,-6.339004993E0,1.033724844E1
4.252459608E0,-7.991975784E0,1.674528003E0,-6.339004993E0,1.033724844E1
4.256399685E0,-7.991975784E0,1.674528003E0,-6.339004993E0,1.033724844E1
4.260339377E0,-7.991975784E0,1.674528003E0,-6.339004993E0,1.033724844E1
4.264279372E0,-7.991975784E0,1.674528003E0,-6.339004993E0,1.033724844E1
4.268219603E0,-7.867885113E0,-1.864949942E0,-4.082506180E0,9.058063322E0
4.272159680E0,-7.867885113E0,-1.864949942E0,-4.082506180E0,9.058063322E0
4.276101218E0,-7.867885113E0,-1.864949942E0,-4.082506180E0,9.058063322E0
4.280041218E0,-7.867885113E0,-1.864949942E0,-4.082506180E0,9.058063322E0
4.283981449E0,-7.867885113E0,-1.864949942E0,-4.082506180E0,9.058063322E0
4.287920833E0,-7.528155804E0,-2.002696037E0,-1.458292007E0,7.925309887E0
4.291861449E0,-7.528155804E0,-2.002696037E0,-1.458292007E0,7.925309887E0
4.295802141E0,-7.528155804E0,-2.002696037E0,-1.458292007E0,7.925309887E0
4.299742064E0,-7.528155804E0,-2.002696037E0,-1.458292007E0,7.925309887E0
4.303682064E0,-7.528155804E0,-2.002696037E0,-1.458292007E0,7.925309887E0
4.307622141E0,-6.990427971E0,-5.252230167E-1,-2.132805109E0,7.327400635E0
4.311562415E0,-6.990427971E0,-5.252230167E-1,-2.132805109E0,7.327400635E0
4.315502415E0,-6.990427971E0,-5.252230167E-1,-2.132805109E0,7.327400635E0
4.319442723E0,-6.990427971E0,-5.252230167E-1,-2.132805109E0,7.327400635E0
4.323383035E0,-6.990427971E0,-5.252230167E-1,-2.132805109E0,7.327400635E0
4.327323035E0,-6.743412018E0,1.568783998E0,-2.091988087E0,7.232641497E0
4.331263266E0,-6.743412018E0,1.568783998E0,-2.091988087E0,7.232641497E0
4.335203632E0,-6.743412018E0,1.568783998E0,-2.091988087E0,7.232641497E0
4.339143555E0,-6.743412018E0,1.568783998E0,-2.091988087E0,7.232641497E0
4.343083016E0,-6.743412018E0,1.568783998E0,-2.091988087E0,7.232641497E0
4.347022944E0,-6.743412018E0,1.568783998E0,-2.091988087E0,7.232641497E0
4.350962944E0,-6.193324089E0,3.990160942E0,-2.217555046E0,7.693906550E0
4.354902714E0,-6.193324089E0,3.990160942E0,-2.217555046E0,7.693906550E0
4.358842314E0,-6.193324089E0,3.990160942E0,-2.217555046E0,7.693906550E0
4.362781776E0,-6.193324089E0,3.990160942E0,-2.217555046E0,7.693906550E0
4.366722314E0,-6.193324089E0,3.990160942E0,-2.217555046E0,7.693906550E0
4.370662622E0,-4.909961224E0,5.553018093E0,-2.542895079E0,7.836456121E0
4.374602930E0,-4.909961224E0,5.553018093E0,-2.542895079E0,7.836456121E0
4.378543006E0,-4.909961224E0,5.553018093E0,-2.542895079E0,7.836456121E0
4.382483848E0,-4.909961224E0,5.553018093E0,-2.542895079E0,7.836456121E0
4.386424848E0,-4.909961224E0,5.553018093E0,-2.542895079E0,7.836456121E0
4.390365771E0,-2.868869066E0,4.852146149E0,-3.272758007E0,6.518027074E0
4.394306324E0,-2.868869066E0,4.852146149E0,-3.272758007E0,6.518027074E0
4.398246401E0,-2.868869066E0,4.852146149E0,-3.272758007E0,6.518027074E0
4.402186401E0,-2.868869066E0,4.852146149E0,-3.272758007E0,6.518027074E0
4.406125714E0,-2.868869066E0,4.852146149E0,-3.272758007E0,6.518027074E0
4.410066406E0,-1.400498986E0,2.931588888E0,-3.380920887E0,4.688948375E0
4.414006637E0,-1.400498986E0,2.931588888E0,-3.380920887E0,4.688948375E0
4.417947022E0,-1.400498986E0,2.931588888E0,-3.380920887E0,4.688948375E0
4.421887637E0,-1.400498986E0,2.931588888E0,-3.380920887E0,4.688948375E0
4.425828175E0,-1.400498986E0,2.931588888E0,-3.380920887E0,4.688948375E0
4.429768863E0,-5.443639755E-1,1.230116010E0,-2.902898073E0,3.199427255E0
4.433709478E0,-5.443639755E-1,1.230116010E0,-2.902898073E0,3.199427255E0
4.437649786E0,-5.443639755E-1,1.230116010E0,-2.902898073E0,3.199427255E0
4.441590385E0,-5.443639755E-1,1.230116010E0,-2.902898073E0,3.199427255E0
4.445531308E0,-5.443639755E-1,1.230116010E0,-2.902898073E0,3.199427255E0
4.449471308E0,8.262169957E-1,-2.306589931E-1,-2.306096077E0,2.460470933E0
4.453412236E0,8.262169957E-1,-2.306589931E-1,-2.306096077E0,2.460470933E0
4.457352236E0,8.262169957E-1,-2.306589931E-1,-2.306096077E0,2.460470933E0
4.461292775E0,8.262169957E-1,-2.306589931E-1,-2.306096077E0,2.460470933E0
4.465233093E0,8.262169957E-1,-2.306589931E-1,-2.306096077E0,2.460470933E0
4.469173785E0,2.137226105E0,-1.461891055E0,-1.663414955E0,3.077630613E0
4.473114016E0,2.137226105E0,-1.461891055E0,-1.663414955E0,3.077630613E0
4.477054414E0,2.137226105E0,-1.461891055E0,-1.663414955E0,3.077630613E0
4.480994722E0,2.137226105E0,-1.461891055E0,-1.663414955E0,3.077630613E0
4.484934953E0,2.137226105E0,-1.461891055E0,-1.663414955E0,3.077630613E0
4.488875337E0,3.470731020E0,-2.272185087E0,-1.279625058E0,4.341225538E0
4.492817491E0,3.470731020E0,-2.272185087E0,-1.279625058E0,4.341225538E0
4.496757799E0,3.470731020E0,-2.272185087E0,-1.279625058E0,4.341225538E0
4.500698337E0,3.470731020E0,-2.272185087E0,-1.279625058E0,4.341225538E0
4.504638414E0,3.470731020E0,-2.272185087E0,-1.279625058E0,4.341225538E0
4.508578645E0,4.648729801E0,-2.519006968E0,-9.694489837E-1,5.375492182E0
4.512548967E0,4.648729801E0,-2.519006968E0,-9.694489837E-1,5.375492182E0
4.516519256E0,4.648729801E0,-2.519006968E0,-9.694489837E-1,5.375492182E0
4.520399640E0,4.648729801E0,-2.519006968E0,-9.694489837E-1,5.375492182E0
4.524340256E0,4.648729801E0,-2.519006968E0,-9.694489837E-1,5.375492182E0
4.528282121E0,5.015929222E0,-2.914012909E0,-3.125660121E-1,5.809364398E0
4.532222659E0,5.015929222E0,-2.914012909E0,-3.125660121E-1,5.809364398E0
4.536162121E0,5.015929222E0,-2.914012909E0,-3.125660121E-1,5.809364398E0
4.540102126E0,5.015929222E0,-2.914012909E0,-3.125660121E-1,5.809364398E0
4.544042126E0,5.015929222E0,-2.914012909E0,-3.125660121E-1,5.809364398E0
4.547981818E0,4.884490013E0,-3.348753929E0,2.846179903E-1,5.929030525E0
4.551921135E0,4.884490013E0,-3.348753929E0,2.846179903E-1,5.929030525E0
4.555860596E0,4.884490013E0,-3.348753929E0,2.846179903E-1,5.929030525E0
4.559800596E0,4.884490013E0,-3.348753929E0,2.846179903E-1,5.929030525E0
4.563740582E0,4.884490013E0,-3.348753929E0,2.846179903E-1,5.929030525E0
4.567680198E0,3.777014017E0,-2.773580074E0,4.523330033E-1,4.707779355E0
4.571619890E0,3.777014017E0,-2.773580074E0,4.523330033E-1,4.707779355E0
4.575560188E0,3.777014017E0,-2.773580074E0,4.523330033E-1,4.707779355E0
4.579500188E0,3.777014017E0,-2.773580074E0,4.523330033E-1,4.707779355E0
4.583440188E0,3.777014017E0,-2.773580074E0,4.523330033E-1,4.707779355E0
4.587380184E0,2.360708952E0,-1.595590949E0,5.542389750E-1,2.902763868E0
4.591320492E0,2.360708952E0,-1.595590949E0,5.542389750E-1,2.902763868E0
4.595260568E0,2.360708952E0,-1.595590949E0,5.542389750E-1,2.902763868E0
4.599200779E0,2.360708952E0,-1.595590949E0,5.542389750E-1,2.902763868E0
4.603140548E0,2.360708952E0,-1.595590949E0,5.542389750E-1,2.902763868E0
4.607079625E0,2.360708952E0,-1.595590949E0,5.542389750E-1,2.902763868E0
4.611019539E0,1.560821056E0,-7.937999964E-1,1.408240050E-1,1.756733390E0
4.614959539E0,1.560821056E0,-7.937999964E-1,1.408240050E-1,1.756733390E0
4.618899540E0,1.560821056E0,-7.937999964E-1,1.408240050E-1,1.756733390E0
4.622839616E0,1.560821056E0,-7.937999964E-1,1.408240050E-1,1.756733390E0
4.626779924E0,1.560821056E0,-7.937999964E-1,1.408240050E-1,1.756733390E0
4.630721155E0,1.018442988E0,1.359640062E-1,3.808899969E-2,1.028184372E0
4.634660170E0,1.018442988E0,1.359640062E-1,3.808899969E-2,1.028184372E0
4.638600478E0,1.018442988E0,1.359640062E-1,3.808899969E-2,1.028184372E0
4.642541401E0,1.018442988E0,1.359640062E-1,3.808899969E-2,1.028184372E0
4.646481478E0,1.018442988E0,1.359640062E-1,3.808899969E-2,1.028184372E0
4.650421708E0,5.006589890E-1,8.245019913E-1,4.301640093E-1,1.056174243E0
4.654362016E0,5.006589890E-1,8.245019913E-1,4.301640093E-1,1.056174243E0
4.658302006E0,5.006589890E-1,8.245019913E-1,4.301640093E-1,1.056174243E0
4.662242006E0,5.006589890E-1,8.245019913E-1,4.301640093E-1,1.056174243E0
4.666182006E0,5.006589890E-1,8.245019913E-1,4.301640093E-1,1.056174243E0
4.670121766E0,-4.074130058E-1,6.034060121E-1,8.966699839E-1,1.155033001E0
4.674062074E0,-4.074130058E-1,6.034060121E-1,8.966699839E-1,1.155033001E0
4.678001766E0,-4.074130058E-1,6.034060121E-1,8.966699839E-1,1.155033001E0
4.681941775E0,-4.074130058E-1,6.034060121E-1,8.966699839E-1,1.155033001E0
4.685881699E0,-4.074130058E-1,6.034060121E-1,8.966699839E-1,1.155033001E0
4.689821468E0,-9.632210135E-1,6.553050280E-1,7.122640014E-1,1.365481383E0
4.693761723E0,-9.632210135E-1,6.553050280E-1,7.122640014E-1,1.365481383E0
4.697701492E0,-9.632210135E-1,6.553050280E-1,7.122640014E-1,1.365481383E0
4.701640261E0,-9.632210135E-1,6.553050280E-1,7.122640014E-1,1.365481383E0
4.705580521E0,-9.632210135E-1,6.553050280E-1,7.122640014E-1,1.365481383E0
4.709521213E0,-5.248389840E-1,1.060330987E0,-1.612560004E-1,1.194052452E0
4.713461507E0,-5.248389840E-1,1.060330987E0,-1.612560004E-1,1.194052452E0
4.717401738E0,-5.248389840E-1,1.060330987E0,-1.612560004E-1,1.194052452E0
4.721342122E0,-5.248389840E-1,1.060330987E0,-1.612560004E-1,1.194052452E0
4.725282738E0,-5.248389840E-1,1.060330987E0,-1.612560004E-1,1.194052452E0
4.729222656E0,-1.341660023E-1,1.339766979E0,-2.186388016E0,2.567736090E0
4.733162733E0,-1.341660023E-1,1.339766979E0,-2.186388016E0,2.567736090E0
4.737103271E0,-1.341660023E-1,1.339766979E0,-2.186388016E0,2.567736090E0
4.741043276E0,-1.341660023E-1,1.339766979E0,-2.186388016E0,2.567736090E0
4.744983584E0,-1.341660023E-1,1.339766979E0,-2.186388016E0,2.567736090E0
4.748923584E0,-3.750570118E-1,2.155601025E0,-4.453826904E0,4.962243206E0
4.752862982E0,-3.750570118E-1,2.155601025E0,-4.453826904E0,4.962243206E0
4.756802444E0,-3.750570118E-1,2.155601025E0,-4.453826904E0,4.962243206E0
4.760742675E0,-3.750570118E-1,2.155601025E0,-4.453826904E0,4.962243206E0
4.764682362E0,-3.750570118E-1,2.155601025E0,-4.453826904E0,4.962243206E0
4.768622670E0,-7.202079892E-1,3.454833984E0,-2.948714972E0,4.598858270E0
4.772562747E0,-7.202079892E-1,3.454833984E0,-2.948714972E0,4.598858270E0
4.776502767E0,-7.202079892E-1,3.454833984E0,-2.948714972E0,4.598858270E0
4.780442459E0,-7.202079892E-1,3.454833984E0,-2.948714972E0,4.598858270E0
4.784383613E0,-7.202079892E-1,3.454833984E0,-2.948714972E0,4.598858270E0
4.788323305E0,-4.797079861E-1,4.447068214E0,2.436710000E-1,4.479498969E0
4.792263613E0,-4.797079861E-1,4.447068214E0,2.436710000E-1,4.479498969E0
4.796203690E0,-4.797079861E-1,4.447068214E0,2.436710000E-1,4.479498969E0
4.800143921E0,-4.797079861E-1,4.447068214E0,2.436710000E-1,4.479498969E0
4.804084228E0,-4.797079861E-1,4.447068214E0,2.436710000E-1,4.479498969E0
4.808024613E0,1.542611957E0,3.693437099E0,1.556115031E0,4.294487542E0
4.811964929E0,1.542611957E0,3.693437099E0,1.556115031E0,4.294487542E0
4.815904852E0,1.542611957E0,3.693437099E0,1.556115031E0,4.294487542E0
4.819844929E0,1.542611957E0,3.693437099E0,1.556115031E0,4.294487542E0
4.823785222E0,1.542611957E0,3.693437099E0,1.556115031E0,4.294487542E0
4.827725761E0,2.834600925E0,1.181987047E0,6.538657188E0,7.223994298E0
4.831665761E0,2.834600925E0,1.181987047E0,6.538657188E0,7.223994298E0
4.835605756E0,2.834600925E0,1.181987047E0,6.538657188E0,7.223994298E0
4.839545448E0,2.834600925E0,1.181987047E0,6.538657188E0,7.223994298E0
4.843485756E0,2.834600925E0,1.181987047E0,6.538657188E0,7.223994298E0
4.847425847E0,2.890760005E-1,-2.151180059E-1,6.559772968E0,6.569662251E0
4.851365539E0,2.890760005E-1,-2.151180059E-1,6.559772968E0,6.569662251E0
4.855305539E0,2.890760005E-1,-2.151180059E-1,6.559772968E0,6.569662251E0
4.859245241E0,2.890760005E-1,-2.151180059E-1,6.559772968E0,6.569662251E0
4.863184934E0,2.890760005E-1,-2.151180059E-1,6.559772968E0,6.569662251E0
4.867124626E0,2.890760005E-1,-2.151180059E-1,6.559772968E0,6.569662251E0
4.871064554E0,-1.471747994E0,2.023067951E0,3.014993906E0,3.917784367E0
4.875004554E0,-1.471747994E0,2.023067951E0,3.014993906E0,3.917784367E0
4.878945862E0,-1.471747994E0,2.023067951E0,3.014993906E0,3.917784367E0
4.882885223E0,-1.471747994E0,2.023067951E0,3.014993906E0,3.917784367E0
4.886824915E0,-1.471747994E0,2.023067951E0,3.014993906E0,3.917784367E0
4.890765146E0,-2.408824921E0,5.119029045E0,1.094164968E0,5.762299267E0
4.894705194E0,-2.408824921E0,5.119029045E0,1.094164968E0,5.762299267E0
4.898645424E0,-2.408824921E0,5.119029045E0,1.094164968E0,5.762299267E0
4.902584809E0,-2.408824921E0,5.119029045E0,1.094164968E0,5.762299267E0
4.906523991E0,-3.238137960E0,7.108502865E0,1.902659982E-1,7.813613222E0
4.910462683E0,-3.238137960E0,7.108502865E0,1.902659982E-1,7.813613222E0
4.914402770E0,-3.238137960E0,7.108502865E0,1.902659982E-1,7.813613222E0
4.918343001E0,-3.238137960E0,7.108502865E0,1.902659982E-1,7.813613222E0
4.922283001E0,-3.238137960E0,7.108502865E0,1.902659982E-1,7.813613222E0
4.926222770E0,-3.238137960E0,7.108502865E0,1.902659982E-1,7.813613222E0
4.930162756E0,-3.565279961E0,8.579835892E0,-1.226477027E0,9.371715479E0
4.934102987E0,-3.565279961E0,8.579835892E0,-1.226477027E0,9.371715479E0
4.938043083E0,-3.565279961E0,8.579835892E0,-1.226477027E0,9.371715479E0
4.941983314E0,-3.565279961E0,8.579835892E0,-1.226477027E0,9.371715479E0
4.945923391E0,-3.565279961E0,8.579835892E0,-1.226477027E0,9.371715479E0
4.949863625E0,-4.039735794E0,7.870715141E0,-1.555433989E0,8.982594114E0
4.953803395E0,-4.039735794E0,7.870715141E0,-1.555433989E0,8.982594114E0
4.957743625E0,-4.039735794E0,7.870715141E0,-1.555433989E0,8.982594114E0
4.961683087E0,-4.039735794E0,7.870715141E0,-1.555433989E0,8.982594114E0
4.965623087E0,-4.039735794E0,7.870715141E0,-1.555433989E0,8.982594114E0
4.969563395E0,-4.508468151E0,4.967333794E0,-1.735883951E0,6.929212306E0
4.973503620E0,-4.508468151E0,4.967333794E0,-1.735883951E0,6.929212306E0
4.977443082E0,-4.508468151E0,4.967333794E0,-1.735883951E0,6.929212306E0
4.981382697E0,-4.508468151E0,4.967333794E0,-1.735883951E0,6.929212306E0
4.985322779E0,-4.508468151E0,4.967333794E0,-1.735883951E0,6.929212306E0
4.989262702E0,-4.565876961E0,1.750257015E0,-2.120357990E0,5.329779550E0
4.993203087E0,-4.565876961E0,1.750257015E0,-2.120357990E0,5.329779550E0
4.997143683E0,-4.565876961E0,1.750257015E0,-2.120357990E0,5.329779550E0
5.001083606E0,-4.565876961E0,1.750257015E0,-2.120357990E0,5.329779550E0
5.005022991E0,-4.565876961E0,1.750257015E0,-2.120357990E0,5.329779550E0
5.008962755E0,-4.230017185E0,-9.075030088E-1,-3.023104906E0,5.277856608E0
5.012902755E0,-4.230017185E0,-9.075030088E-1,-3.023104906E0,5.277856608E0
5.016842678E0,-4.230017185E0,-9.075030088E-1,-3.023104906E0,5.277856608E0
5.020782131E0,-4.230017185E0,-9.075030088E-1,-3.023104906E0,5.277856608E0
5.024722131E0,-4.230017185E0,-9.075030088E-1,-3.023104906E0,5.277856608E0
5.028662439E0,-3.445434093E0,-3.550322056E0,-3.471340895E0,6.043675239E0
5.032602111E0,-3.445434093E0,-3.550322056E0,-3.471340895E0,6.043675239E0
5.036542111E0,-3.445434093E0,-3.550322056E0,-3.471340895E0,6.043675239E0
5.040483573E0,-3.445434093E0,-3.550322056E0,-3.471340895E0,6.043675239E0
5.044424270E0,-3.445434093E0,-3.550322056E0,-3.471340895E0,6.043675239E0
5.048364193E0,-1.960705042E0,-6.314283848E0,1.196347952E0,6.719061928E0
5.052304885E0,-1.960705042E0,-6.314283848E0,1.196347952E0,6.719061928E0
5.056245184E0,-1.960705042E0,-6.314283848E0,1.196347952E0,6.719061928E0
5.060185184E0,-1.960705042E0,-6.314283848E0,1.196347952E0,6.719061928E0
5.064125722E0,-1.960705042E0,-6.314283848E0,1.196347952E0,6.719061928E0
5.068066030E0,-1.967851996E0,-7.700805187E0,2.368916988E0,8.293769331E0
5.072006338E0,-1.967851996E0,-7.700805187E0,2.368916988E0,8.293769331E0
5.075946415E0,-1.967851996E0,-7.700805187E0,2.368916988E0,8.293769331E0
5.079886731E0,-1.967851996E0,-7.700805187E0,2.368916988E0,8.293769331E0
5.083826962E0,-1.967851996E0,-7.700805187E0,2.368916988E0,8.293769331E0
5.087766731E0,-1.997902036E0,-6.876708984E0,1.931763053E0,7.417037649E0
5.091706626E0,-1.997902036E0,-6.876708984E0,1.931763053E0,7.417037649E0
5.095646933E0,-1.997902036E0,-6.876708984E0,1.931763053E0,7.417037649E0
5.099585164E0,-1.997902036E0,-6.876708984E0,1.931763053E0,7.417037649E0
5.103525150E0,-1.997902036E0,-6.876708984E0,1.931763053E0,7.417037649E0
5.107465381E0,-2.180485964E0,-5.284464836E0,-1.002236009E0,5.803840509E0
5.111406304E0,-2.180485964E0,-5.284464836E0,-1.002236009E0,5.803840509E0
5.115346299E0,-2.180485964E0,-5.284464836E0,-1.002236009E0,5.803840509E0
5.119286299E0,-2.180485964E0,-5.284464836E0,-1.002236009E0,5.803840509E0
5.123226607E0,-2.180485964E0,-5.284464836E0,-1.002236009E0,5.803840509E0
5.127166660E0,-2.180485964E0,-5.284464836E0,-1.002236009E0,5.803840509E0
5.131106352E0,-2.565082073E0,-4.666289806E0,-2.132229090E0,5.735878964E0
5.135046275E0,-2.565082073E0,-4.666289806E0,-2.132229090E0,5.735878964E0
5.138985962E0,-2.565082073E0,-4.666289806E0,-2.132229090E0,5.735878964E0
5.142925732E0,-2.565082073E0,-4.666289806E0,-2.132229090E0,5.735878964E0
5.146865655E0,-2.565082073E0,-4.666289806E0,-2.132229090E0,5.735878964E0
5.150805655E0,-3.479271889E0,-4.529452801E0,-2.764767885E0,6.345487925E0
5.154745116E0,-3.479271889E0,-4.529452801E0,-2.764767885E0,6.345487925E0
5.158684732E0,-3.479271889E0,-4.529452801E0,-2.764767885E0,6.345487925E0
5.162624761E0,-3.479271889E0,-4.529452801E0,-2.764767885E0,6.345487925E0
5.166564222E0,-3.479271889E0,-4.529452801E0,-2.764767885E0,6.345487925E0
5.170504145E0,-3.388740063E0,-4.802385807E0,-1.651131034E0,6.105137373E0
5.174443588E0,-3.388740063E0,-4.802385807E0,-1.651131034E0,6.105137373E0
5.178384126E0,-3.388740063E0,-4.802385807E0,-1.651131034E0,6.105137373E0
5.182325357E0,-3.388740063E0,-4.802385807E0,-1.651131034E0,6.105137373E0
5.186265660E0,-3.388740063E0,-4.802385807E0,-1.651131034E0,6.105137373E0
5.190205737E0,-2.361623049E0,-4.176263809E0,1.329383969E0,4.978524336E0
5.194145660E0,-2.361623049E0,-4.176263809E0,1.329383969E0,4.978524336E0
5.198085362E0,-2.361623049E0,-4.176263809E0,1.329383969E0,4.978524336E0
5.202025362E0,-2.361623049E0,-4.176263809E0,1.329383969E0,4.978524336E0
5.205965362E0,-2.361623049E0,-4.176263809E0,1.329383969E0,4.978524336E0
5.209903616E0,8.044670224E-1,-3.369808912E0,8.018515587E0,8.734951145E0
5.213843847E0,8.044670224E-1,-3.369808912E0,8.018515587E0,8.734951145E0
5.217783616E0,8.044670224E-1,-3.369808912E0,8.018515587E0,8.734951145E0
5.221723862E0,8.044670224E-1,-3.369808912E0,8.018515587E0,8.734951145E0
5.225663631E0,8.044670224E-1,-3.369808912E0,8.018515587E0,8.734951145E0
5.229603939E0,9.620333672E0,-1.786566973E0,1.655061722E1,1.922668905E1
5.233543929E0,9.620333672E0,-1.786566973E0,1.655061722E1,1.922668905E1
5.237483621E0,9.620333672E0,-1.786566973E0,1.655061722E1,1.922668905E1
5.241424159E0,9.620333672E0,-1.786566973E0,1.655061722E1,1.922668905E1
5.245362924E0,9.620333672E0,-1.786566973E0,1.655061722E1,1.922668905E1
5.249302924E0,1.864519310E1,3.677789867E-1,-1.008589983E0,1.867607402E1
5.253242693E0,1.864519310E1,3.677789867E-1,-1.008589983E0,1.867607402E1
5.257182924E0,1.864519310E1,3.677789867E-1,-1.008589983E0,1.867607402E1
5.261123308E0,1.864519310E1,3.677789867E-1,-1.008589983E0,1.867607402E1
5.265064847E0,1.864519310E1,3.677789867E-1,-1.008589983E0,1.867607402E1
5.269005395E0,2.269383621E1,5.961223125E0,2.669966936E0,2.361514570E1
5.272945703E0,2.269383621E1,5.961223125E0,2.669966936E0,2.361514570E1
5.276886088E0,2.269383621E1,5.961223125E0,2.669966936E0,2.361514570E1
5.280826405E0,2.269383621E1,5.961223125E0,2.669966936E0,2.361514570E1
5.284766944E0,2.269383621E1,5.961223125E0,2.669966936E0,2.361514570E1
5.288706713E0,1.576463318E1,7.230412006E0,2.758826017E0,1.756170943E1
5.292646433E0,1.576463318E1,7.230412006E0,2.758826017E0,1.756170943E1
5.296586664E0,1.576463318E1,7.230412006E0,2.758826017E0,1.756170943E1
5.300526356E0,1.576463318E1,7.230412006E0,2.758826017E0,1.756170943E1
5.304466457E0,1.576463318E1,7.230412006E0,2.758826017E0,1.756170943E1
5.308405150E0,1.017176247E1,-1.893643975E0,-1.041895986E0,1.039885505E1
5.312375637E0,1.017176247E1,-1.893643975E0,-1.041895986E0,1.039885505E1
5.316346078E0,1.017176247E1,-1.893643975E0,-1.041895986E0,1.039885505E1
5.320226693E0,1.017176247E1,-1.893643975E0,-1.041895986E0,1.039885505E1
5.324167001E0,1.017176247E1,-1.893643975E0,-1.041895986E0,1.039885505E1
5.328107324E0,3.896316051E0,-4.604150772E0,-2.824220896E0,6.660008016E0
5.332047016E0,3.896316051E0,-4.604150772E0,-2.824220896E0,6.660008016E0
5.335986708E0,3.896316051E0,-4.604150772E0,-2.824220896E0,6.660008016E0
5.339926366E0,3.896316051E0,-4.604150772E0,-2.824220896E0,6.660008016E0
5.343866059E0,3.896316051E0,-4.604150772E0,-2.824220896E0,6.660008016E0
5.347807059E0,4.869009852E-1,-4.821929932E-1,-1.790356994E0,1.917018731E0
5.351746679E0,4.869009852E-1,-4.821929932E-1,-1.790356994E0,1.917018731E0
5.355687064E0,4.869009852E-1,-4.821929932E-1,-1.790356994E0,1.917018731E0
5.359627679E0,4.869009852E-1,-4.821929932E-1,-1.790356994E0,1.917018731E0
5.363568213E0,4.869009852E-1,-4.821929932E-1,-1.790356994E0,1.917018731E0
5.367508905E0,6.684338093E0,5.400485039E0,1.052991104E1,1.359134434E1
5.371449443E0,6.684338093E0,5.400485039E0,1.052991104E1,1.359134434E1
5.375389227E0,6.684338093E0,5.400485039E0,1.052991104E1,1.359134434E1
5.379329227E0,6.684338093E0,5.400485039E0,1.052991104E1,1.359134434E1
5.383271304E0,6.684338093E0,5.400485039E0,1.052991104E1,1.359134434E1
5.387211688E0,6.684338093E0,5.400485039E0,1.052991104E1,1.359134434E1
5.391152304E0,-5.182878971E0,8.729690552E0,3.754545927E0,1.082434047E1
5.395091304E0,-5.182878971E0,8.729690552E0,3.754545927E0,1.082434047E1
5.399031578E0,-5.182878971E0,8.729690552E0,3.754545927E0,1.082434047E1
5.402971963E0,-5.182878971E0,8.729690552E0,3.754545927E0,1.082434047E1
5.406912809E0,-5.182878971E0,8.729690552E0,3.754545927E0,1.082434047E1
5.410853794E0,-7.367428780E0,1.771270037E-1,-7.677474022E0,1.064208571E1
5.414794640E0,-7.367428780E0,1.771270037E-1,-7.677474022E0,1.064208571E1
5.418735025E0,-7.367428780E0,1.771270037E-1,-7.677474022E0,1.064208571E1
5.422675553E0,-7.367428780E0,1.771270037E-1,-7.677474022E0,1.064208571E1
5.426616169E0,-7.367428780E0,1.771270037E-1,-7.677474022E0,1.064208571E1
5.430555938E0,-7.820920944E0,-2.459640026E0,-6.783480167E0,1.064106370E1
5.434496184E0,-7.820920944E0,-2.459640026E0,-6.783480167E0,1.064106370E1
5.438436568E0,-7.820920944E0,-2.459640026E0,-6.783480167E0,1.064106370E1
5.442376876E0,-7.820920944E0,-2.459640026E0,-6.783480167E0,1.064106370E1
5.446316876E0,-7.820920944E0,-2.459640026E0,-6.783480167E0,1.064106370E1
5.450256876E0,-6.932232857E0,-9.896230102E-1,-4.598834991E0,8.377618359E0
5.454197107E0,-6.932232857E0,-9.896230102E-1,-4.598834991E0,8.377618359E0
5.458136861E0,-6.932232857E0,-9.896230102E-1,-4.598834991E0,8.377618359E0
5.462077092E0,-6.932232857E0,-9.896230102E-1,-4.598834991E0,8.377618359E0
5.466017477E0,-6.932232857E0,-9.896230102E-1,-4.598834991E0,8.377618359E0
5.469958006E0,-7.045976162E0,1.263864994E0,-4.193671227E0,8.296385548E0
5.473898314E0,-7.045976162E0,1.263864994E0,-4.193671227E0,8.296385548E0
5.477838698E0,-7.045976162E0,1.263864994E0,-4.193671227E0,8.296385548E0
5.481778996E0,-7.045976162E0,1.263864994E0,-4.193671227E0,8.296385548E0
5.485719611E0,-7.045976162E0,1.263864994E0,-4.193671227E0,8.296385548E0
5.489660150E0,-6.869151115E0,2.660723925E0,-3.653462887E0,8.222680823E0
5.493600530E0,-6.869151115E0,2.660723925E0,-3.653462887E0,8.222680823E0
5.497540760E0,-6.869151115E0,2.660723925E0,-3.653462887E0,8.222680823E0
5.501480530E0,-6.869151115E0,2.660723925E0,-3.653462887E0,8.222680823E0
5.505420823E0,-6.869151115E0,2.660723925E0,-3.653462887E0,8.222680823E0
5.509361131E0,-6.584418774E0,3.903695107E0,-2.775844097E0,8.142402380E0
5.513301751E0,-6.584418774E0,3.903695107E0,-2.775844097E0,8.142402380E0
5.517241982E0,-6.584418774E0,3.903695107E0,-2.775844097E0,8.142402380E0
5.521183521E0,-6.584418774E0,3.903695107E0,-2.775844097E0,8.142402380E0
5.525123213E0,-6.584418774E0,3.903695107E0,-2.775844097E0,8.142402380E0
5.529063217E0,-5.475587845E0,4.529424191E0,-2.187280059E-1,7.109542017E0
5.533003294E0,-5.475587845E0,4.529424191E0,-2.187280059E-1,7.109542017E0
5.536943217E0,-5.475587845E0,4.529424191E0,-2.187280059E-1,7.109542017E0
5.540882578E0,-5.475587845E0,4.529424191E0,-2.187280059E-1,7.109542017E0
5.544822655E0,-5.475587845E0,4.529424191E0,-2.187280059E-1,7.109542017E0
5.548762885E0,-3.691915989E0,4.357680798E0,-2.110594034E0,6.088861370E0
5.552702909E0,-3.691915989E0,4.357680798E0,-2.110594034E0,6.088861370E0
5.556643294E0,-3.691915989E0,4.357680798E0,-2.110594034E0,6.088861370E0
5.560583217E0,-3.691915989E0,4.357680798E0,-2.110594034E0,6.088861370E0
5.564523285E0,-3.691915989E0,4.357680798E0,-2.110594034E0,6.088861370E0
5.568463208E0,-2.031102896E0,3.238579035E0,-2.524097919E0,4.580921681E0
5.572401977E0,-2.031102896E0,3.238579035E0,-2.524097919E0,4.580921681E0
5.576342069E0,-2.031102896E0,3.238579035E0,-2.524097919E0,4.580921681E0
5.580282608E0,-2.031102896E0,3.238579035E0,-2.524097919E0,4.580921681E0
5.584222377E0,-2.031102896E0,3.238579035E0,-2.524097919E0,4.580921681E0
5.588162934E0,-5.255240202E-1,1.456974030E0,-2.456989050E0,2.904435231E0
5.592102627E0,-5.255240202E-1,1.456974030E0,-2.456989050E0,2.904435231E0
5.596042704E0,-5.255240202E-1,1.456974030E0,-2.456989050E0,2.904435231E0
5.599982987E0,-5.255240202E-1,1.456974030E0,-2.456989050E0,2.904435231E0
5.603923526E0,-5.255240202E-1,1.456974030E0,-2.456989050E0,2.904435231E0
5.607864141E0,8.160160184E-1,-2.511770129E-1,-1.920218945E0,2.101478724E0
5.611804449E0,8.160160184E-1,-2.511770129E-1,-1.920218945E0,2.101478724E0
5.615744218E0,8.160160184E-1,-2.511770129E-1,-1.920218945E0,2.101478724E0
5.619684449E0,8.160160184E-1,-2.511770129E-1,-1.920218945E0,2.101478724E0
5.623624512E0,8.160160184E-1,-2.511770129E-1,-1.920218945E0,2.101478724E0
5.627563897E0,1.681612968E0,-1.438876033E0,-1.394132018E0,2.615681651E0
5.631503589E0,1.681612968E0,-1.438876033E0,-1.394132018E0,2.615681651E0
5.635443617E0,1.681612968E0,-1.438876033E0,-1.394132018E0,2.615681651E0
5.639383848E0,1.681612968E0,-1.438876033E0,-1.394132018E0,2.615681651E0
5.643323848E0,1.681612968E0,-1.438876033E0,-1.394132018E0,2.615681651E0
5.647263613E0,1.681612968E0,-1.438876033E0,-1.394132018E0,2.615681651E0
5.651203613E0,2.886795998E0,-2.078191996E0,-8.984410167E-1,3.668742204E0
5.655143613E0,2.886795998E0,-2.078191996E0,-8.984410167E-1,3.668742204E0
5.659083536E0,2.886795998E0,-2.078191996E0,-8.984410167E-1,3.668742204E0
5.663023844E0,2.886795998E0,-2.078191996E0,-8.984410167E-1,3.668742204E0
5.666964151E0,2.886795998E0,-2.078191996E0,-8.984410167E-1,3.668742204E0
5.670905049E0,4.277258873E0,-2.504801989E0,-7.973060012E-1,5.020425612E0
5.674844819E0,4.277258873E0,-2.504801989E0,-7.973060012E-1,5.020425612E0
5.678785126E0,4.277258873E0,-2.504801989E0,-7.973060012E-1,5.020425612E0
5.682727290E0,4.277258873E0,-2.504801989E0,-7.973060012E-1,5.020425612E0
5.686668136E0,4.277258873E0,-2.504801989E0,-7.973060012E-1,5.020425612E0
5.690607906E0,4.712618828E0,-2.519650936E0,-4.512700066E-2,5.344104556E0
5.694547911E0,4.712618828E0,-2.519650936E0,-4.512700066E-2,5.344104556E0
5.698488218E0,4.712618828E0,-2.519650936E0,-4.512700066E-2,5.344104556E0
5.702428218E0,4.712618828E0,-2.519650936E0,-4.512700066E-2,5.344104556E0
5.706368511E0,4.811824799E0,-2.941721916E0,5.660349727E-1,5.668137376E0
5.710308511E0,4.811824799E0,-2.941721916E0,5.660349727E-1,5.668137376E0
5.714248742E0,4.811824799E0,-2.941721916E0,5.660349727E-1,5.668137376E0
5.718189127E0,4.811824799E0,-2.941721916E0,5.660349727E-1,5.668137376E0
5.722128819E0,4.811824799E0,-2.941721916E0,5.660349727E-1,5.668137376E0
5.726068742E0,4.811824799E0,-2.941721916E0,5.660349727E-1,5.668137376E0
5.730008824E0,3.134989023E0,-3.171613932E0,6.708239913E-1,4.509689117E0
5.733948824E0,3.134989023E0,-3.171613932E0,6.708239913E-1,4.509689117E0
5.737888521E0,3.134989023E0,-3.171613932E0,6.708239913E-1,4.509689117E0
5.741828521E0,3.134989023E0,-3.171613932E0,6.708239913E-1,4.509689117E0
5.745768829E0,3.134989023E0,-3.171613932E0,6.708239913E-1,4.509689117E0
5.749709439E0,1.533805013E0,-2.676928997E0,3.581919968E-1,3.105931129E0
5.753650055E0,1.533805013E0,-2.676928997E0,3.581919968E-1,3.105931129E0
5.757590593E0,1.533805013E0,-2.676928997E0,3.581919968E-1,3.105931129E0
5.761530593E0,1.533805013E0,-2.676928997E0,3.581919968E-1,3.105931129E0
5.765470901E0,1.533805013E0,-2.676928997E0,3.581919968E-1,3.105931129E0
5.769410978E0,4.308190048E-1,-1.782904983E0,6.138800085E-2,1.835244855E0
5.773350887E0,4.308190048E-1,-1.782904983E0,6.138800085E-2,1.835244855E0
5.777289656E0,4.308190048E-1,-1.782904983E0,6.138800085E-2,1.835244855E0
5.781229348E0,4.308190048E-1,-1.782904983E0,6.138800085E-2,1.835244855E0
5.785168477E0,4.308190048E-1,-1.782904983E0,6.138800085E-2,1.835244855E0
5.789108247E0,-1.538379937E-1,-2.169770002E-1,-1.546700001E-1,3.076815820E-1
5.793048477E0,-1.538379937E-1,-2.169770002E-1,-1.546700001E-1,3.076815820E-1
5.796988809E0,-1.538379937E-1,-2.169770002E-1,-1.546700001E-1,3.076815820E-1
5.800928809E0,-1.538379937E-1,-2.169770002E-1,-1.546700001E-1,3.076815820E-1
5.804868578E0,-1.538379937E-1,-2.169770002E-1,-1.546700001E-1,3.076815820E-1
5.808808578E0,-6.972900033E-1,1.065757990E0,-5.274360180E-1,1.378492726E0
5.812748578E0,-6.972900033E-1,1.065757990E0,-5.274360180E-1,1.378492726E0
5.816688809E0,-6.972900033E-1,1.065757990E0,-5.274360180E-1,1.378492726E0
5.820628477E0,-6.972900033E-1,1.065757990E0,-5.274360180E-1,1.378492726E0
5.824568477E0,-6.972900033E-1,1.065757990E0,-5.274360180E-1,1.378492726E0
5.828508862E0,-8.826410174E-1,1.614667058E0,-9.172599912E-1,2.056105728E0
5.832448492E0,-8.826410174E-1,1.614667058E0,-9.172599912E-1,2.056105728E0
5.836387877E0,-8.826410174E-1,1.614667058E0,-9.172599912E-1,2.056105728E0
5.840327877E0,-8.826410174E-1,1.614667058E0,-9.172599912E-1,2.056105728E0
5.844267963E0,-8.826410174E-1,1.614667058E0,-9.172599912E-1,2.056105728E0
5.848207655E0,-6.934249997E-1,4.069530070E-1,-6.011090279E-1,1.003882983E0
5.852147348E0,-6.934249997E-1,4.069530070E-1,-6.011090279E-1,1.003882983E0
5.856086742E0,-6.934249997E-1,4.069530070E-1,-6.011090279E-1,1.003882983E0
5.860026665E0,-6.934249997E-1,4.069530070E-1,-6.011090279E-1,1.003882983E0
5.863966435E0,-6.934249997E-1,4.069530070E-1,-6.011090279E-1,1.003882983E0
5.867906098E0,-1.069236994E0,5.607450008E-1,-1.060781956E0,1.607159315E0
5.871845713E0,-1.069236994E0,5.607450008E-1,-1.060781956E0,1.607159315E0
5.875785406E0,-1.069236994E0,5.607450008E-1,-1.060781956E0,1.607159315E0
5.879725420E0,-1.069236994E0,5.607450008E-1,-1.060781956E0,1.607159315E0
5.883665112E0,-1.069236994E0,5.607450008E-1,-1.060781956E0,1.607159315E0
5.887604881E0,-6.428089738E-1,1.473309040E0,-2.364619970E0,2.859242996E0
5.891544814E0,-6.428089738E-1,1.473309040E0,-2.364619970E0,2.859242996E0
5.895484507E0,-6.428089738E-1,1.473309040E0,-2.364619970E0,2.859242996E0
5.899424199E0,-6.428089738E-1,1.473309040E0,-2.364619970E0,2.859242996E0
5.903364290E0,-6.428089738E-1,1.473309040E0,-2.364619970E0,2.859242996E0
5.907303905E0,2.896299958E-2,2.229574919E0,-4.817594051E0,5.308583202E0
5.911243290E0,2.896299958E-2,2.229574919E0,-4.817594051E0,5.308583202E0
5.915183584E0,2.896299958E-2,2.229574919E0,-4.817594051E0,5.308583202E0
5.919123661E0,2.896299958E-2,2.229574919E0,-4.817594051E0,5.308583202E0
5.923063584E0,2.896299958E-2,2.229574919E0,-4.817594051E0,5.308583202E0
5.927003862E0,2.896299958E-2,2.229574919E0,-4.817594051E0,5.308583202E0
5.930943555E0,3.929040134E-1,2.205444098E0,-1.931239009E0,2.957708799E0
5.934883632E0,3.929040134E-1,2.205444098E0,-1.931239009E0,2.957708799E0
5.938825430E0,3.929040134E-1,2.205444098E0,-1.931239009E0,2.957708799E0
5.942765507E0,3.929040134E-1,2.205444098E0,-1.931239009E0,2.957708799E0
5.946705738E0,3.929040134E-1,2.205444098E0,-1.931239009E0,2.957708799E0
5.950645718E0,4.894219935E-1,2.421547890E0,1.798002005E0,3.055526023E0
5.954585179E0,4.894219935E-1,2.421547890E0,1.798002005E0,3.055526023E0
5.958524871E0,4.894219935E-1,2.421547890E0,1.798002005E0,3.055526023E0
5.962464885E0,4.894219935E-1,2.421547890E0,1.798002005E0,3.055526023E0
5.966404578E0,4.894219935E-1,2.421547890E0,1.798002005E0,3.055526023E0
5.970344885E0,2.264249086E0,2.459157944E0,3.806469917E0,5.065915016E0
5.974284785E0,2.264249086E0,2.459157944E0,3.806469917E0,5.065915016E0
5.978224477E0,2.264249086E0,2.459157944E0,3.806469917E0,5.065915016E0
5.982164554E0,2.264249086E0,2.459157944E0,3.806469917E0,5.065915016E0
5.986104525E0,2.264249086E0,2.459157944E0,3.806469917E0,5.065915016E0
5.990044756E0,5.994991779E0,1.586285949E0,7.875489235E0,1.002394933E1
5.993984832E0,5.994991779E0,1.586285949E0,7.875489235E0,1.002394933E1
5.997924463E0,5.994991779E0,1.586285949E0,7.875489235E0,1.002394933E1
6.001864463E0,5.994991779E0,1.586285949E0,7.875489235E0,1.002394933E1
6.005804155E0,5.994991779E0,1.586285949E0,7.875489235E0,1.002394933E1
6.009743919E0,5.007347107E0,4.993869960E-1,4.231668949E0,6.574947492E0
6.013683612E0,5.007347107E0,4.993869960E-1,4.231668949E0,6.574947492E0
6.017623227E0,5.007347107E0,4.993869960E-1,4.231668949E0,6.574947492E0
6.021562996E0,5.007347107E0,4.993869960E-1,4.231668949E0,6.574947492E0
6.025502689E0,5.007347107E0,4.993869960E-1,4.231668949E0,6.574947492E0
6.029442381E0,2.354077101E0,5.461050272E-1,1.250450969E0,2.720944197E0
6.033382597E0,2.354077101E0,5.461050272E-1,1.250450969E0,2.720944197E0
6.037322289E0,2.354077101E0,5.461050272E-1,1.250450969E0,2.720944197E0
6.041262289E0,2.354077101E0,5.461050272E-1,1.250450969E0,2.720944197E0
6.045201991E0,2.354077101E0,5.461050272E-1,1.250450969E0,2.720944197E0
6.049141453E0,-2.676889896E-1,3.099162102E0,5.641239882E-1,3.161439388E0
6.053081376E0,-2.676889896E-1,3.099162102E0,5.641239882E-1,3.161439388E0
6.057019934E0,-2.676889896E-1,3.099162102E0,5.641239882E-1,3.161439388E0
6.060961395E0,-2.676889896E-1,3.099162102E0,5.641239882E-1,3.161439388E0
6.064901087E0,-2.676889896E-1,3.099162102E0,5.641239882E-1,3.161439388E0
6.068840761E0,-2.445302010E0,6.536808968E0,-3.234179914E-1,6.986699693E0
6.072780222E0,-2.445302010E0,6.536808968E0,-3.234179914E-1,6.986699693E0
6.076720530E0,-2.445302010E0,6.536808968E0,-3.234179914E-1,6.986699693E0
6.080660544E0,-2.445302010E0,6.536808968E0,-3.234179914E-1,6.986699693E0
6.084600159E0,-2.445302010E0,6.536808968E0,-3.234179914E-1,6.986699693E0
6.088540236E0,-3.907000065E0,9.056629181E0,-1.444018006E0,9.968569086E0
6.092480775E0,-3.907000065E0,9.056629181E0,-1.444018006E0,9.968569086E0
6.096420775E0,-3.907000065E0,9.056629181E0,-1.444018006E0,9.968569086E0
6.100360852E0,-3.907000065E0,9.056629181E0,-1.444018006E0,9.968569086E0
6.104301088E0,-3.907000065E0,9.056629181E0,-1.444018006E0,9.968569086E0
6.108241088E0,-5.241059780E0,1.093134308E1,-3.372931004E0,1.258330770E1
6.112211175E0,-5.241059780E0,1.093134308E1,-3.372931004E0,1.258330770E1
6.116181194E0,-5.241059780E0,1.093134308E1,-3.372931004E0,1.258330770E1
6.120060886E0,-5.241059780E0,1.093134308E1,-3.372931004E0,1.258330770E1
6.124000886E0,-5.241059780E0,1.093134308E1,-3.372931004E0,1.258330770E1
6.127940799E0,-6.309040070E0,8.878062248E0,-2.640602112E0,1.120699582E1
6.131880184E0,-6.309040070E0,8.878062248E0,-2.640602112E0,1.120699582E1
6.135819876E0,-6.309040070E0,8.878062248E0,-2.640602112E0,1.120699582E1
6.139759357E0,-6.309040070E0,8.878062248E0,-2.640602112E0,1.120699582E1
6.143699280E0,-6.309040070E0,8.878062248E0,-2.640602112E0,1.120699582E1
6.147638973E0,-6.134075165E0,3.919400930E0,-2.086713076E0,7.572513007E0
6.151578728E0,-6.134075165E0,3.919400930E0,-2.086713076E0,7.572513007E0
6.155518113E0,-6.134075165E0,3.919400930E0,-2.086713076E0,7.572513007E0
6.159457113E0,-6.134075165E0,3.919400930E0,-2.086713076E0,7.572513007E0
6.163396185E0,-6.134075165E0,3.919400930E0,-2.086713076E0,7.572513007E0
6.167335646E0,-5.051212788E0,-3.739440143E-1,-5.328410268E-1,5.092985795E0
6.171276569E0,-5.051212788E0,-3.739440143E-1,-5.328410268E-1,5.092985795E0
6.175216276E0,-5.051212788E0,-3.739440143E-1,-5.328410268E-1,5.092985795E0
6.179155968E0,-5.051212788E0,-3.739440143E-1,-5.328410268E-1,5.092985795E0
6.183095660E0,-5.051212788E0,-3.739440143E-1,-5.328410268E-1,5.092985795E0
6.187034660E0,-3.627906084E0,-3.904673100E0,-7.223100215E-2,5.330421361E0
6.190973814E0,-3.627906084E0,-3.904673100E0,-7.223100215E-2,5.330421361E0
6.194913506E0,-3.627906084E0,-3.904673100E0,-7.223100215E-2,5.330421361E0
6.198852829E0,-3.627906084E0,-3.904673100E0,-7.223100215E-2,5.330421361E0
6.202791983E0,-3.627906084E0,-3.904673100E0,-7.223100215E-2,5.330421361E0
6.206731598E0,-3.627906084E0,-3.904673100E0,-7.223100215E-2,5.330421361E0
6.210671588E0,-2.795886993E0,-5.706185818E0,-5.531999841E-2,6.354573233E0
6.214611665E0,-2.795886993E0,-5.706185818E0,-5.531999841E-2,6.354573233E0
6.218551358E0,-2.795886993E0,-5.706185818E0,-5.531999841E-2,6.354573233E0
6.222488915E0,-2.795886993E0,-5.706185818E0,-5.531999841E-2,6.354573233E0
6.226428223E0,-1.985358000E0,-5.806976795E0,-2.654199898E-1,6.142725263E0
6.230367684E0,-1.985358000E0,-5.806976795E0,-2.654199898E-1,6.142725263E0
6.234307055E0,-1.985358000E0,-5.806976795E0,-2.654199898E-1,6.142725263E0
6.238247286E0,-1.985358000E0,-5.806976795E0,-2.654199898E-1,6.142725263E0
6.242187055E0,-1.985358000E0,-5.806976795E0,-2.654199898E-1,6.142725263E0
6.246126348E0,-1.985358000E0,-5.806976795E0,-2.654199898E-1,6.142725263E0
6.250066655E0,-1.368132949E0,-5.224936962E0,-5.788329840E-1,5.432016352E0
6.254006425E0,-1.368132949E0,-5.224936962E0,-5.788329840E-1,5.432016352E0
6.257945487E0,-1.368132949E0,-5.224936962E0,-5.788329840E-1,5.432016352E0
6.261885180E0,-1.368132949E0,-5.224936962E0,-5.788329840E-1,5.432016352E0
6.265824564E0,-1.368132949E0,-5.224936962E0,-5.788329840E-1,5.432016352E0
6.269763843E0,-1.967268944E0,-4.256396770E0,-2.684899867E-1,4.696716666E0
6.273703228E0,-1.967268944E0,-4.256396770E0,-2.684899867E-1,4.696716666E0
6.277642612E0,-1.967268944E0,-4.256396770E0,-2.684899867E-1,4.696716666E0
6.281581132E0,-1.967268944E0,-4.256396770E0,-2.684899867E-1,4.696716666E0
6.285520516E0,-1.967268944E0,-4.256396770E0,-2.684899867E-1,4.696716666E0
6.289459286E0,-2.415880919E0,-3.839144945E0,-1.734246016E0,4.856245851E0
6.293398915E0,-2.415880919E0,-3.839144945E0,-1.734246016E0,4.856245851E0
6.297338684E0,-2.415880919E0,-3.839144945E0,-1.734246016E0,4.856245851E0
6.301278915E0,-2.415880919E0,-3.839144945E0,-1.734246016E0,4.856245851E0
6.305217988E0,-2.415880919E0,-3.839144945E0,-1.734246016E0,4.856245851E0
6.309157142E0,-3.013459921E0,-3.999041080E0,-2.032316923E0,5.404033895E0
6.313096445E0,-3.013459921E0,-3.999041080E0,-2.032316923E0,5.404033895E0
6.317058368E0,-3.013459921E0,-3.999041080E0,-2.032316923E0,5.404033895E0
6.320974983E0,-3.013459921E0,-3.999041080E0,-2.032316923E0,5.404033895E0
6.324914906E0,-3.013459921E0,-3.999041080E0,-2.032316923E0,5.404033895E0
6.328854271E0,-3.534636021E0,-4.475473881E0,-2.091131926E0,6.074236659E0
6.332793655E0,-3.534636021E0,-4.475473881E0,-2.091131926E0,6.074236659E0
6.336733040E0,-3.534636021E0,-4.475473881E0,-2.091131926E0,6.074236659E0
6.340671900E0,-3.534636021E0,-4.475473881E0,-2.091131926E0,6.074236659E0
6.344610669E0,-3.534636021E0,-4.475473881E0,-2.091131926E0,6.074236659E0
6.348549669E0,-3.591775894E0,-5.143793106E0,-1.085901022E0,6.366996358E0
6.352489150E0,-3.591775894E0,-5.143793106E0,-1.085901022E0,6.366996358E0
6.356429688E0,-3.591775894E0,-5.143793106E0,-1.085901022E0,6.366996358E0
6.360369073E0,-3.591775894E0,-5.143793106E0,-1.085901022E0,6.366996358E0
6.364308448E0,-3.591775894E0,-5.143793106E0,-1.085901022E0,6.366996358E0
6.368247217E0,-3.831278086E0,-4.968546867E0,3.150290012E0,7.020646473E0
6.372186602E0,-3.831278086E0,-4.968546867E0,3.150290012E0,7.020646473E0
6.376126386E0,-3.831278086E0,-4.968546867E0,3.150290012E0,7.020646473E0
6.380065386E0,-3.831278086E0,-4.968546867E0,3.150290012E0,7.020646473E0
6.384004770E0,-3.831278086E0,-4.968546867E0,3.150290012E0,7.020646473E0
6.387944530E0,-1.726788044E0,-2.557450056E0,1.052566719E1,1.096868349E1
6.391883914E0,-1.726788044E0,-2.557450056E0,1.052566719E1,1.096868349E1
6.395822068E0,-1.726788044E0,-2.557450056E0,1.052566719E1,1.096868349E1
6.399761761E0,-1.726788044E0,-2.557450056E0,1.052566719E1,1.096868349E1
6.403701376E0,-1.726788044E0,-2.557450056E0,1.052566719E1,1.096868349E1
6.407640837E0,7.278243065E0,3.244659901E-1,1.331510162E1,1.517794556E1
6.411580434E0,7.278243065E0,3.244659901E-1,1.331510162E1,1.517794556E1
6.415519511E0,7.278243065E0,3.244659901E-1,1.331510162E1,1.517794556E1
6.419458588E0,7.278243065E0,3.244659901E-1,1.331510162E1,1.517794556E1
6.423396819E0,7.278243065E0,3.244659901E-1,1.331510162E1,1.517794556E1
6.427336126E0,1.438022518E1,2.195230007E0,-2.574176073E0,1.477282280E1
6.431275819E0,1.438022518E1,2.195230007E0,-2.574176073E0,1.477282280E1
6.435215275E0,1.438022518E1,2.195230007E0,-2.574176073E0,1.477282280E1
6.439155275E0,1.438022518E1,2.195230007E0,-2.574176073E0,1.477282280E1
6.443096737E0,1.438022518E1,2.195230007E0,-2.574176073E0,1.477282280E1
6.447037063E0,1.438022518E1,2.195230007E0,-2.574176073E0,1.477282280E1
6.450977140E0,1.981345558E1,7.739673138E0,1.603853941E0,2.133185200E1
6.454917371E0,1.981345558E1,7.739673138E0,1.603853941E0,2.133185200E1
6.458857082E0,1.981345558E1,7.739673138E0,1.603853941E0,2.133185200E1
6.462796775E0,1.981345558E1,7.739673138E0,1.603853941E0,2.133185200E1
6.466736467E0,1.981345558E1,7.739673138E0,1.603853941E0,2.133185200E1
6.470676486E0,1.778120804E1,4.810028076E0,8.905640244E-1,1.844182295E1
6.474616255E0,1.778120804E1,4.810028076E0,8.905640244E-1,1.844182295E1
6.478556255E0,1.778120804E1,4.810028076E0,8.905640244E-1,1.844182295E1
6.482494636E0,1.778120804E1,4.810028076E0,8.905640244E-1,1.844182295E1
6.486434020E0,1.778120804E1,4.810028076E0,8.905640244E-1,1.844182295E1
6.490373790E0,1.235068321E1,-3.170571089E0,-1.310987949E0,1.281836909E1
