"Time (s)","Linear Acceleration x (m/s^2)","Linear Acceleration y (m/s^2)","Linear Acceleration z (m/s^2)","Absolute acceleration (m/s^2)"
0.000000000E0,-1.481709927E-1,-3.225699961E-1,9.468000382E-3,3.550995473E-1
0.000000000E0,-1.481709927E-1,-3.225699961E-1,9.468000382E-3,3.550995473E-1
0.000000000E0,-1.481709927E-1,-3.225699961E-1,9.468000382E-3,3.550995473E-1
0.000000000E0,-1.481709927E-1,-3.225699961E-1,9.468000382E-3,3.550995473E-1
0.000000000E0,-1.481709927E-1,-3.225699961E-1,9.468000382E-3,3.550995473E-1
0.000000000E0,-1.481709927E-1,-3.225699961E-1,9.468000382E-3,3.550995473E-1
0.000000000E0,-1.481709927E-1,-3.225699961E-1,9.468000382E-3,3.550995473E-1
0.000000000E0,-1.481709927E-1,-3.225699961E-1,9.468000382E-3,3.550995473E-1
0.000000000E0,-1.481709927E-1,-3.225699961E-1,9.468000382E-3,3.550995473E-1
0.000000000E0,-1.481709927E-1,-3.225699961E-1,9.468000382E-3,3.550995473E-1
0.000000000E0,-1.481709927E-1,-3.225699961E-1,9.468000382E-3,3.550995473E-1
0.000000000E0,-1.481709927E-1,-3.225699961E-1,9.468000382E-3,3.550995473E-1
0.000000000E0,-1.481709927E-1,-3.225699961E-1,9.468000382E-3,3.550995473E-1
0.000000000E0,-1.481709927E-1,-3.225699961E-1,9.468000382E-3,3.550995473E-1
0.000000000E0,-1.481709927E-1,-3.225699961E-1,9.468000382E-3,3.550995473E-1
0.000000000E0,-1.481709927E-1,-3.225699961E-1,9.468000382E-3,3.550995473E-1
0.000000000E0,-1.481709927E-1,-3.225699961E-1,9.468000382E-3,3.550995473E-1
0.000000000E0,-1.481709927E-1,-3.225699961E-1,9.468000382E-3,3.550995473E-1
0.000000000E0,-1.481709927E-1,-3.225699961E-1,9.468000382E-3,3.550995473E-1
0.000000000E0,-1.481709927E-1,-3.225699961E-1,9.468000382E-3,3.550995473E-1
0.000000000E0,-1.481709927E-1,-3.225699961E-1,9.468000382E-3,3.550995473E-1
0.000000000E0,-1.481709927E-1,-3.225699961E-1,9.468000382E-3,3.550995473E-1
0.000000000E0,-1.481709927E-1,-3.225699961E-1,9.468000382E-3,3.550995473E-1
0.000000000E0,-1.481709927E-1,-3.225699961E-1,9.468000382E-3,3.550995473E-1
0.000000000E0,-1.481709927E-1,-3.225699961E-1,9.468000382E-3,3.550995473E-1
0.000000000E0,-1.481709927E-1,-3.225699961E-1,9.468000382E-3,3.550995473E-1
0.000000000E0,-1.481709927E-1,-3.225699961E-1,9.468000382E-3,3.550995473E-1
0.000000000E0,-1.481709927E-1,-3.225699961E-1,9.468000382E-3,3.550995473E-1
0.000000000E0,-1.481709927E-1,-3.225699961E-1,9.468000382E-3,3.550995473E-1
0.000000000E0,-1.481709927E-1,-3.225699961E-1,9.468000382E-3,3.550995473E-1
0.000000000E0,-1.481709927E-1,-3.225699961E-1,9.468000382E-3,3.550995473E-1
2.555374000E-3,-1.481709927E-1,-3.225699961E-1,9.468000382E-3,3.550995473E-1
6.496297000E-3,-1.481709927E-1,-3.225699961E-1,9.468000382E-3,3.550995473E-1
3.146462800E-2,-1.481709927E-1,-3.225699961E-1,9.468000382E-3,3.550995473E-1
3.540493600E-2,-1.481709927E-1,-3.225699961E-1,9.468000382E-3,3.550995473E-1
3.934555100E-2,-1.481709927E-1,-3.225699961E-1,9.468000382E-3,3.550995473E-1
4.328616600E-2,-1.481709927E-1,-3.225699961E-1,9.468000382E-3,3.550995473E-1
4.722646800E-2,-1.481709927E-1,-3.225699961E-1,9.468000382E-3,3.550995473E-1
5.116731400E-2,-1.481709927E-1,-3.225699961E-1,9.468000382E-3,3.550995473E-1
5.510793000E-2,-1.481709927E-1,-3.225699961E-1,9.468000382E-3,3.550995473E-1
5.904886800E-2,-1.481709927E-1,-3.225699961E-1,9.468000382E-3,3.550995473E-1
6.298956000E-2,-1.481709927E-1,-3.225699961E-1,9.468000382E-3,3.550995473E-1
6.693048300E-2,-1.481709927E-1,-3.225699961E-1,9.468000382E-3,3.550995473E-1
7.087144000E-2,-1.481709927E-1,-3.225699961E-1,9.468000382E-3,3.550995473E-1
7.481236300E-2,-7.884699702E-1,1.533295035E0,1.239519000E0,2.123460833E0
7.875328600E-2,-7.884699702E-1,1.533295035E0,1.239519000E0,2.123460833E0
8.269417600E-2,-7.884699702E-1,1.533295035E0,1.239519000E0,2.123460833E0
8.663479100E-2,-7.884699702E-1,1.533295035E0,1.239519000E0,2.123460833E0
9.057571400E-2,-7.884699702E-1,1.533295035E0,1.239519000E0,2.123460833E0
9.451640500E-2,-4.223679900E-1,1.447160006E0,3.117229939E-1,1.539427824E0
9.845725200E-2,-4.223679900E-1,1.447160006E0,3.117229939E-1,1.539427824E0
1.023987900E-1,-4.223679900E-1,1.447160006E0,3.117229939E-1,1.539427824E0
1.063394290E-1,-4.223679900E-1,1.447160006E0,3.117229939E-1,1.539427824E0
1.102803520E-1,-4.223679900E-1,1.447160006E0,3.117229939E-1,1.539427824E0
1.142213520E-1,-3.177179992E-1,1.084329009E0,2.167640030E-1,1.150521951E0
1.181625110E-1,-3.177179992E-1,1.084329009E0,2.167640030E-1,1.150521951E0
1.221034340E-1,-3.177179992E-1,1.084329009E0,2.167640030E-1,1.150521951E0
1.260440500E-1,-3.177179992E-1,1.084329009E0,2.167640030E-1,1.150521951E0
1.299850830E-1,-3.177179992E-1,1.084329009E0,2.167640030E-1,1.150521951E0
1.339262370E-1,-7.424449921E-1,5.425050259E-1,5.487199873E-2,9.211662204E-1
1.378671600E-1,-7.424449921E-1,5.425050259E-1,5.487199873E-2,9.211662204E-1
1.418078420E-1,-7.424449921E-1,5.425050259E-1,5.487199873E-2,9.211662204E-1
1.457490730E-1,-7.424449921E-1,5.425050259E-1,5.487199873E-2,9.211662204E-1
1.496896880E-1,-7.424449921E-1,5.425050259E-1,5.487199873E-2,9.211662204E-1
1.536304960E-1,-1.012416959E0,3.296760023E-1,-3.669039905E-1,1.126185111E0
1.575708810E-1,-1.012416959E0,3.296760023E-1,-3.669039905E-1,1.126185111E0
1.615114960E-1,-1.012416959E0,3.296760023E-1,-3.669039905E-1,1.126185111E0
1.654518040E-1,-1.012416959E0,3.296760023E-1,-3.669039905E-1,1.126185111E0
1.693924200E-1,-1.012416959E0,3.296760023E-1,-3.669039905E-1,1.126185111E0
1.733332660E-1,-1.252827048E0,2.056120038E-1,-1.526504040E0,1.985463798E0
1.772739430E-1,-1.252827048E0,2.056120038E-1,-1.526504040E0,1.985463798E0
1.812141740E-1,-1.252827048E0,2.056120038E-1,-1.526504040E0,1.985463798E0
1.851547890E-1,-1.252827048E0,2.056120038E-1,-1.526504040E0,1.985463798E0
1.890954100E-1,-1.252827048E0,2.056120038E-1,-1.526504040E0,1.985463798E0
1.930357170E-1,-1.418171048E0,2.794139981E-1,-2.773730993E0,3.127757172E0
1.969761020E-1,-1.418171048E0,2.794139981E-1,-2.773730993E0,3.127757172E0
2.009170100E-1,-1.418171048E0,2.794139981E-1,-2.773730993E0,3.127757172E0
2.048581640E-1,-1.418171048E0,2.794139981E-1,-2.773730993E0,3.127757172E0
2.087991640E-1,-1.418171048E0,2.794139981E-1,-2.773730993E0,3.127757172E0
2.127394150E-1,-1.347805977E0,4.529759884E-1,-3.129775047E0,3.437624186E0
2.166794920E-1,-1.347805977E0,4.529759884E-1,-3.129775047E0,3.437624186E0
2.206204150E-1,-1.347805977E0,4.529759884E-1,-3.129775047E0,3.437624186E0
2.245610100E-1,-1.347805977E0,4.529759884E-1,-3.129775047E0,3.437624186E0
2.285015490E-1,-1.347805977E0,4.529759884E-1,-3.129775047E0,3.437624186E0
2.330024720E-1,-6.965460181E-1,4.546239972E-1,-4.626505852E0,4.700682475E0
2.363831790E-1,-6.965460181E-1,4.546239972E-1,-4.626505852E0,4.700682475E0
2.403246400E-1,-6.965460181E-1,4.546239972E-1,-4.626505852E0,4.700682475E0
2.442656400E-1,-6.965460181E-1,4.546239972E-1,-4.626505852E0,4.700682475E0
2.482065340E-1,-6.965460181E-1,4.546239972E-1,-4.626505852E0,4.700682475E0
2.521471490E-1,-7.017859817E-1,-4.085600078E-1,-5.180950165E0,5.244203415E0
2.560880720E-1,-7.017859817E-1,-4.085600078E-1,-5.180950165E0,5.244203415E0
2.600285970E-1,-7.017859817E-1,-4.085600078E-1,-5.180950165E0,5.244203415E0
2.639686730E-1,-7.017859817E-1,-4.085600078E-1,-5.180950165E0,5.244203415E0
2.679095970E-1,-7.017859817E-1,-4.085600078E-1,-5.180950165E0,5.244203415E0
2.718495630E-1,-1.076833963E0,-4.370709956E-1,-3.192692041E0,3.397629307E0
2.757898700E-1,-1.076833963E0,-4.370709956E-1,-3.192692041E0,3.397629307E0
2.797304090E-1,-1.076833963E0,-4.370709956E-1,-3.192692041E0,3.397629307E0
2.836707160E-1,-1.076833963E0,-4.370709956E-1,-3.192692041E0,3.397629307E0
2.876114090E-1,-1.076833963E0,-4.370709956E-1,-3.192692041E0,3.397629307E0
2.915519470E-1,-7.292919755E-1,-4.258939922E-1,-2.757704973E0,2.884127112E0
2.954922260E-1,-7.292919755E-1,-4.258939922E-1,-2.757704973E0,2.884127112E0
2.994332260E-1,-7.292919755E-1,-4.258939922E-1,-2.757704973E0,2.884127112E0
3.033740720E-1,-7.292919755E-1,-4.258939922E-1,-2.757704973E0,2.884127112E0
3.073150000E-1,-7.292919755E-1,-4.258939922E-1,-2.757704973E0,2.884127112E0
3.112553850E-1,-7.292919755E-1,-4.258939922E-1,-2.757704973E0,2.884127112E0
3.151956160E-1,-6.386730075E-1,8.894069791E-1,-6.031833172E0,6.130412661E0
3.191355920E-1,-6.386730075E-1,8.894069791E-1,-6.031833172E0,6.130412661E0
3.230759760E-1,-6.386730075E-1,8.894069791E-1,-6.031833172E0,6.130412661E0
3.270178220E-1,-6.386730075E-1,8.894069791E-1,-6.031833172E0,6.130412661E0
3.309584330E-1,-6.386730075E-1,8.894069791E-1,-6.031833172E0,6.130412661E0
3.348981250E-1,-1.645918012E0,1.883613944E0,-8.041390419E0,8.421461124E0
3.388384330E-1,-1.645918012E0,1.883613944E0,-8.041390419E0,8.421461124E0
3.427790670E-1,-1.645918012E0,1.883613944E0,-8.041390419E0,8.421461124E0
3.467196060E-1,-1.645918012E0,1.883613944E0,-8.041390419E0,8.421461124E0
3.506599900E-1,-1.645918012E0,1.883613944E0,-8.041390419E0,8.421461124E0
3.546005290E-1,-2.276716948E0,2.085937977E0,-5.834999084E0,6.601650674E0
3.585409130E-1,-2.276716948E0,2.085937977E0,-5.834999084E0,6.601650674E0
3.624815290E-1,-2.276716948E0,2.085937977E0,-5.834999084E0,6.601650674E0
3.664220480E-1,-2.276716948E0,2.085937977E0,-5.834999084E0,6.601650674E0
3.703621250E-1,-2.276716948E0,2.085937977E0,-5.834999084E0,6.601650674E0
3.743021250E-1,-2.207425117E0,1.546599030E0,-2.633646011E0,3.768392963E0
3.782423750E-1,-2.207425117E0,1.546599030E0,-2.633646011E0,3.768392963E0
3.821830670E-1,-2.207425117E0,1.546599030E0,-2.633646011E0,3.768392963E0
3.861232980E-1,-2.207425117E0,1.546599030E0,-2.633646011E0,3.768392963E0
3.900633750E-1,-2.207425117E0,1.546599030E0,-2.633646011E0,3.768392963E0
3.940033750E-1,-1.461092949E0,1.461123943E0,-1.890218019E0,2.800464237E0
3.979439130E-1,-1.461092949E0,1.461123943E0,-1.890218019E0,2.800464237E0
4.018841970E-1,-1.461092949E0,1.461123943E0,-1.890218019E0,2.800464237E0
4.058241970E-1,-1.461092949E0,1.461123943E0,-1.890218019E0,2.800464237E0
4.097642740E-1,-1.461092949E0,1.461123943E0,-1.890218019E0,2.800464237E0
4.137048320E-1,-1.304790020E0,1.818063974E0,-1.834745049E0,2.893807701E0
4.176446010E-1,-1.304790020E0,1.818063974E0,-1.834745049E0,2.893807701E0
4.215848320E-1,-1.304790020E0,1.818063974E0,-1.834745049E0,2.893807701E0
4.255248800E-1,-1.304790020E0,1.818063974E0,-1.834745049E0,2.893807701E0
4.294952070E-1,-1.304790020E0,1.818063974E0,-1.834745049E0,2.893807701E0
4.334654960E-1,-1.304790020E0,1.818063974E0,-1.834745049E0,2.893807701E0
4.373442990E-1,-9.066110253E-1,2.085443974E0,-1.138326049E0,2.542991607E0
4.412848380E-1,-9.066110253E-1,2.085443974E0,-1.138326049E0,2.542991607E0
4.452248380E-1,-9.066110253E-1,2.085443974E0,-1.138326049E0,2.542991607E0
4.491660440E-1,-9.066110253E-1,2.085443974E0,-1.138326049E0,2.542991607E0
4.531066600E-1,-3.241139948E-1,2.045655012E0,-6.188219786E-1,2.161641726E0
4.570472750E-1,-3.241139948E-1,2.045655012E0,-6.188219786E-1,2.161641726E0
4.609873860E-1,-3.241139948E-1,2.045655012E0,-6.188219786E-1,2.161641726E0
4.649273860E-1,-3.241139948E-1,2.045655012E0,-6.188219786E-1,2.161641726E0
4.688676170E-1,-3.241139948E-1,2.045655012E0,-6.188219786E-1,2.161641726E0
4.728082220E-1,6.278099865E-2,1.692821980E0,7.416579723E-1,1.849228016E0
4.767486070E-1,6.278099865E-2,1.692821980E0,7.416579723E-1,1.849228016E0
4.806891450E-1,6.278099865E-2,1.692821980E0,7.416579723E-1,1.849228016E0
4.846301400E-1,6.278099865E-2,1.692821980E0,7.416579723E-1,1.849228016E0
4.885709870E-1,6.278099865E-2,1.692821980E0,7.416579723E-1,1.849228016E0
4.925113710E-1,-1.926500052E-1,1.425752997E0,2.383358955E0,2.783933466E0
4.964522070E-1,-1.926500052E-1,1.425752997E0,2.383358955E0,2.783933466E0
5.003931300E-1,-1.926500052E-1,1.425752997E0,2.383358955E0,2.783933466E0
5.043340540E-1,-1.926500052E-1,1.425752997E0,2.383358955E0,2.783933466E0
5.082746930E-1,-1.926500052E-1,1.425752997E0,2.383358955E0,2.783933466E0
5.122150010E-1,-5.325109959E-1,1.419720054E0,3.449240923E0,3.767815804E0
5.161550780E-1,-5.325109959E-1,1.419720054E0,3.449240923E0,3.767815804E0
5.200953850E-1,-5.325109959E-1,1.419720054E0,3.449240923E0,3.767815804E0
5.240356930E-1,-5.325109959E-1,1.419720054E0,3.449240923E0,3.767815804E0
5.279759240E-1,-5.325109959E-1,1.419720054E0,3.449240923E0,3.767815804E0
5.319165350E-1,-6.122220159E-1,1.157868028E0,4.266297817E0,4.462820995E0
5.358572270E-1,-6.122220159E-1,1.157868028E0,4.266297817E0,4.462820995E0
5.397977660E-1,-6.122220159E-1,1.157868028E0,4.266297817E0,4.462820995E0
5.437381310E-1,-6.122220159E-1,1.157868028E0,4.266297817E0,4.462820995E0
5.476786690E-1,-6.122220159E-1,1.157868028E0,4.266297817E0,4.462820995E0
5.516189770E-1,-4.413000047E-1,8.767030239E-1,4.582449913E0,4.686384650E0
5.555593800E-1,-4.413000047E-1,8.767030239E-1,4.582449913E0,4.686384650E0
5.594999190E-1,-4.413000047E-1,8.767030239E-1,4.582449913E0,4.686384650E0
5.634402270E-1,-4.413000047E-1,8.767030239E-1,4.582449913E0,4.686384650E0
5.673805150E-1,-4.413000047E-1,8.767030239E-1,4.582449913E0,4.686384650E0
5.713211310E-1,6.380800158E-2,5.118770003E-1,4.432377815E0,4.462293426E0
5.752612080E-1,6.380800158E-2,5.118770003E-1,4.432377815E0,4.462293426E0
5.792018420E-1,6.380800158E-2,5.118770003E-1,4.432377815E0,4.462293426E0
5.831421500E-1,6.380800158E-2,5.118770003E-1,4.432377815E0,4.462293426E0
5.870827650E-1,6.380800158E-2,5.118770003E-1,4.432377815E0,4.462293426E0
5.910236500E-1,6.380800158E-2,5.118770003E-1,4.432377815E0,4.462293426E0
5.949640350E-1,4.835399985E-2,4.137769938E-1,3.545919895E0,3.570307748E0
5.989042660E-1,4.835399985E-2,4.137769938E-1,3.545919895E0,3.570307748E0
6.028446690E-1,4.835399985E-2,4.137769938E-1,3.545919895E0,3.570307748E0
6.067849770E-1,4.835399985E-2,4.137769938E-1,3.545919895E0,3.570307748E0
6.107255150E-1,4.835399985E-2,4.137769938E-1,3.545919895E0,3.570307748E0
6.146662370E-1,-2.014929950E-1,4.288730025E-1,2.774694920E0,2.814864717E0
6.186073910E-1,-2.014929950E-1,4.288730025E-1,2.774694920E0,2.814864717E0
6.225483910E-1,-2.014929950E-1,4.288730025E-1,2.774694920E0,2.814864717E0
6.264888940E-1,-2.014929950E-1,4.288730025E-1,2.774694920E0,2.814864717E0
6.304295860E-1,-2.014929950E-1,4.288730025E-1,2.774694920E0,2.814864717E0
6.343702020E-1,-2.260989994E-1,1.848569959E-1,2.747389078E0,2.762868005E0
6.383111300E-1,-2.260989994E-1,1.848569959E-1,2.747389078E0,2.762868005E0
6.422517450E-1,-2.260989994E-1,1.848569959E-1,2.747389078E0,2.762868005E0
6.461923610E-1,-2.260989994E-1,1.848569959E-1,2.747389078E0,2.762868005E0
6.501334810E-1,-2.260989994E-1,1.848569959E-1,2.747389078E0,2.762868005E0
6.540741730E-1,-1.352670044E-1,-3.488430083E-1,3.119604111E0,3.141960919E0
6.580150960E-1,-1.352670044E-1,-3.488430083E-1,3.119604111E0,3.141960919E0
6.619556290E-1,-1.352670044E-1,-3.488430083E-1,3.119604111E0,3.141960919E0
6.658959370E-1,-1.352670044E-1,-3.488430083E-1,3.119604111E0,3.141960919E0
6.698365520E-1,-1.352670044E-1,-3.488430083E-1,3.119604111E0,3.141960919E0
6.737768510E-1,-2.003259957E-1,-5.409569740E-1,2.418343067E0,2.486191494E0
6.777172360E-1,-2.003259957E-1,-5.409569740E-1,2.418343067E0,2.486191494E0
6.816577740E-1,-2.003259957E-1,-5.409569740E-1,2.418343067E0,2.486191494E0
6.855981830E-1,-2.003259957E-1,-5.409569740E-1,2.418343067E0,2.486191494E0
6.895387980E-1,-2.003259957E-1,-5.409569740E-1,2.418343067E0,2.486191494E0
6.934793370E-1,1.549369991E-1,-8.292940259E-1,8.808330297E-1,1.219672448E0
6.974192980E-1,1.549369991E-1,-8.292940259E-1,8.808330297E-1,1.219672448E0
7.013596050E-1,1.549369991E-1,-8.292940259E-1,8.808330297E-1,1.219672448E0
7.052999900E-1,1.549369991E-1,-8.292940259E-1,8.808330297E-1,1.219672448E0
7.092402790E-1,1.549369991E-1,-8.292940259E-1,8.808330297E-1,1.219672448E0
7.131808170E-1,3.874799907E-1,-1.347393036E0,-6.443259716E-1,1.542972681E0
7.171215100E-1,3.874799907E-1,-1.347393036E0,-6.443259716E-1,1.542972681E0
7.210621540E-1,3.874799907E-1,-1.347393036E0,-6.443259716E-1,1.542972681E0
7.250030000E-1,3.874799907E-1,-1.347393036E0,-6.443259716E-1,1.542972681E0
7.289433080E-1,3.874799907E-1,-1.347393036E0,-6.443259716E-1,1.542972681E0
7.328837060E-1,8.559640050E-1,-1.889276028E0,-4.123130143E-1,2.114719913E0
7.368243220E-1,8.559640050E-1,-1.889276028E0,-4.123130143E-1,2.114719913E0
7.407648600E-1,8.559640050E-1,-1.889276028E0,-4.123130143E-1,2.114719913E0
7.447057640E-1,8.559640050E-1,-1.889276028E0,-4.123130143E-1,2.114719913E0
7.486466880E-1,8.559640050E-1,-1.889276028E0,-4.123130143E-1,2.114719913E0
7.525876880E-1,1.131687999E0,-2.106348991E0,-3.705599904E-2,2.391400625E0
7.565291540E-1,1.131687999E0,-2.106348991E0,-3.705599904E-2,2.391400625E0
7.604698460E-1,1.131687999E0,-2.106348991E0,-3.705599904E-2,2.391400625E0
7.644110000E-1,1.131687999E0,-2.106348991E0,-3.705599904E-2,2.391400625E0
7.683516780E-1,1.131687999E0,-2.106348991E0,-3.705599904E-2,2.391400625E0
7.722932160E-1,8.418220282E-1,-1.964159966E0,-1.144498944E0,2.424142432E0
7.762344470E-1,8.418220282E-1,-1.964159966E0,-1.144498944E0,2.424142432E0
7.801755870E-1,8.418220282E-1,-1.964159966E0,-1.144498944E0,2.424142432E0
7.841165100E-1,8.418220282E-1,-1.964159966E0,-1.144498944E0,2.424142432E0
7.880572020E-1,8.418220282E-1,-1.964159966E0,-1.144498944E0,2.424142432E0
7.919981100E-1,3.077670038E-1,-1.468600988E0,-1.538581014E0,2.149125619E0
7.959387260E-1,3.077670038E-1,-1.468600988E0,-1.538581014E0,2.149125619E0
7.998793410E-1,3.077670038E-1,-1.468600988E0,-1.538581014E0,2.149125619E0
8.038199230E-1,3.077670038E-1,-1.468600988E0,-1.538581014E0,2.149125619E0
8.077608460E-1,3.077670038E-1,-1.468600988E0,-1.538581014E0,2.149125619E0
8.117023080E-1,-5.678359866E-1,-1.357527018E0,-2.402282953E0,2.817140518E0
8.156427080E-1,-5.678359866E-1,-1.357527018E0,-2.402282953E0,2.817140518E0
8.195833230E-1,-5.678359866E-1,-1.357527018E0,-2.402282953E0,2.817140518E0
8.235245540E-1,-5.678359866E-1,-1.357527018E0,-2.402282953E0,2.817140518E0
8.274657990E-1,-5.678359866E-1,-1.357527018E0,-2.402282953E0,2.817140518E0
8.314051830E-1,-7.790390253E-1,-1.203047037E0,-2.157835007E0,2.590458626E0
8.353460290E-1,-7.790390253E-1,-1.203047037E0,-2.157835007E0,2.590458626E0
8.392869520E-1,-7.790390253E-1,-1.203047037E0,-2.157835007E0,2.590458626E0
8.432278760E-1,-7.790390253E-1,-1.203047037E0,-2.157835007E0,2.590458626E0
8.471685680E-1,-7.790390253E-1,-1.203047037E0,-2.157835007E0,2.590458626E0
8.511085730E-1,-7.790390253E-1,-1.203047037E0,-2.157835007E0,2.590458626E0
8.550491110E-1,8.965089917E-1,-3.384949863E-1,-2.085499048E0,2.295128212E0
8.589894960E-1,8.965089917E-1,-3.384949863E-1,-2.085499048E0,2.295128212E0
8.629301260E-1,8.965089917E-1,-3.384949863E-1,-2.085499048E0,2.295128212E0
8.668707420E-1,8.965089917E-1,-3.384949863E-1,-2.085499048E0,2.295128212E0
8.708110490E-1,8.965089917E-1,-3.384949863E-1,-2.085499048E0,2.295128212E0
8.747509480E-1,1.905238032E0,5.966780186E-1,-4.440061092E0,4.868274758E0
8.786913320E-1,1.905238032E0,5.966780186E-1,-4.440061092E0,4.868274758E0
8.826319480E-1,1.905238032E0,5.966780186E-1,-4.440061092E0,4.868274758E0
8.865728180E-1,1.905238032E0,5.966780186E-1,-4.440061092E0,4.868274758E0
8.905135100E-1,1.905238032E0,5.966780186E-1,-4.440061092E0,4.868274758E0
8.944537410E-1,2.085691929E0,1.899922967E0,-7.851666927E0,8.343170359E0
8.983946790E-1,2.085691929E0,1.899922967E0,-7.851666927E0,8.343170359E0
9.023352940E-1,2.085691929E0,1.899922967E0,-7.851666927E0,8.343170359E0
9.062753710E-1,2.085691929E0,1.899922967E0,-7.851666927E0,8.343170359E0
9.102153420E-1,2.085691929E0,1.899922967E0,-7.851666927E0,8.343170359E0
9.141561880E-1,1.238533974E0,2.434000015E0,-7.338710785E0,7.830389420E0
9.180964960E-1,1.238533974E0,2.434000015E0,-7.338710785E0,7.830389420E0
9.220371930E-1,1.238533974E0,2.434000015E0,-7.338710785E0,7.830389420E0
9.259774240E-1,1.238533974E0,2.434000015E0,-7.338710785E0,7.830389420E0
9.299177320E-1,1.238533974E0,2.434000015E0,-7.338710785E0,7.830389420E0
9.338583800E-1,1.664643049E0,1.982177019E0,-4.774878979E0,5.431347114E0
9.377993030E-1,1.664643049E0,1.982177019E0,-4.774878979E0,5.431347114E0
9.417399190E-1,1.664643049E0,1.982177019E0,-4.774878979E0,5.431347114E0
9.456802070E-1,1.664643049E0,1.982177019E0,-4.774878979E0,5.431347114E0
9.496209000E-1,1.664643049E0,1.982177019E0,-4.774878979E0,5.431347114E0
9.535621310E-1,2.600436926E0,1.265174031E0,-2.958679914E0,4.137236320E0
9.575029870E-1,2.600436926E0,1.265174031E0,-2.958679914E0,4.137236320E0
9.614433710E-1,2.600436926E0,1.265174031E0,-2.958679914E0,4.137236320E0
9.653839100E-1,2.600436926E0,1.265174031E0,-2.958679914E0,4.137236320E0
9.693242750E-1,2.600436926E0,1.265174031E0,-2.958679914E0,4.137236320E0
9.732651220E-1,3.166371107E0,7.915359735E-1,-1.633311033E0,3.649676714E0
9.772057370E-1,3.166371107E0,7.915359735E-1,-1.633311033E0,3.649676714E0
9.811464240E-1,3.166371107E0,7.915359735E-1,-1.633311033E0,3.649676714E0
9.850867320E-1,3.166371107E0,7.915359735E-1,-1.633311033E0,3.649676714E0
9.890275780E-1,3.166371107E0,7.915359735E-1,-1.633311033E0,3.649676714E0
9.929679770E-1,2.977142096E0,4.494569898E-1,-4.846479893E-1,3.049634456E0
9.969085920E-1,2.977142096E0,4.494569898E-1,-4.846479893E-1,3.049634456E0
1.000848900E0,2.977142096E0,4.494569898E-1,-4.846479893E-1,3.049634456E0
1.004789136E0,2.977142096E0,4.494569898E-1,-4.846479893E-1,3.049634456E0
1.008730059E0,2.977142096E0,4.494569898E-1,-4.846479893E-1,3.049634456E0
1.012670982E0,2.379483938E0,4.385499954E-1,2.704870105E-1,2.434632032E0
1.016611630E0,2.379483938E0,4.385499954E-1,2.704870105E-1,2.434632032E0
1.020552630E0,2.379483938E0,4.385499954E-1,2.704870105E-1,2.434632032E0
1.024493553E0,2.379483938E0,4.385499954E-1,2.704870105E-1,2.434632032E0
1.028434804E0,1.443665028E0,7.201570272E-1,8.622810245E-1,1.829295881E0
1.032979650E0,1.443665028E0,7.201570272E-1,8.622810245E-1,1.829295881E0
1.036315958E0,1.443665028E0,7.201570272E-1,8.622810245E-1,1.829295881E0
1.040256343E0,1.443665028E0,7.201570272E-1,8.622810245E-1,1.829295881E0
1.044197198E0,1.443665028E0,7.201570272E-1,8.622810245E-1,1.829295881E0
1.048138121E0,1.443665028E0,7.201570272E-1,8.622810245E-1,1.829295881E0
1.052078813E0,-1.107830033E-1,1.133514047E0,1.711904049E0,2.056147475E0
1.056019410E0,-1.107830033E-1,1.133514047E0,1.711904049E0,2.056147475E0
1.059960025E0,-1.107830033E-1,1.133514047E0,1.711904049E0,2.056147475E0
1.063900871E0,-1.107830033E-1,1.133514047E0,1.711904049E0,2.056147475E0
1.067841587E0,-1.107830033E-1,1.133514047E0,1.711904049E0,2.056147475E0
1.071783049E0,-1.229591012E0,1.500694990E0,2.670152903E0,3.300559958E0
1.075723741E0,-1.229591012E0,1.500694990E0,2.670152903E0,3.300559958E0
1.079664352E0,-1.229591012E0,1.500694990E0,2.670152903E0,3.300559958E0
1.083604890E0,-1.229591012E0,1.500694990E0,2.670152903E0,3.300559958E0
1.087545506E0,-1.229591012E0,1.500694990E0,2.670152903E0,3.300559958E0
1.091486497E0,-1.827661037E0,1.337671041E0,3.069189072E0,3.814397756E0
1.095427420E0,-1.827661037E0,1.337671041E0,3.069189072E0,3.814397756E0
1.099367727E0,-1.827661037E0,1.337671041E0,3.069189072E0,3.814397756E0
1.103308593E0,-1.827661037E0,1.337671041E0,3.069189072E0,3.814397756E0
1.107249285E0,-1.827661037E0,1.337671041E0,3.069189072E0,3.814397756E0
1.111188593E0,-1.827661037E0,1.337671041E0,3.069189072E0,3.814397756E0
1.115128986E0,-1.439996004E0,6.855139732E-1,3.354286909E0,3.714129584E0
1.119069909E0,-1.439996004E0,6.855139732E-1,3.354286909E0,3.714129584E0
1.123011371E0,-1.439996004E0,6.855139732E-1,3.354286909E0,3.714129584E0
1.126951982E0,-1.439996004E0,6.855139732E-1,3.354286909E0,3.714129584E0
1.130892598E0,-1.439996004E0,6.855139732E-1,3.354286909E0,3.714129584E0
1.134833213E0,-9.050999880E-1,7.064300030E-2,4.225724220E0,4.322145487E0
1.138774453E0,-9.050999880E-1,7.064300030E-2,4.225724220E0,4.322145487E0
1.142714837E0,-9.050999880E-1,7.064300030E-2,4.225724220E0,4.322145487E0
1.146655684E0,-9.050999880E-1,7.064300030E-2,4.225724220E0,4.322145487E0
1.150596385E0,-9.050999880E-1,7.064300030E-2,4.225724220E0,4.322145487E0
1.154537308E0,-5.098059773E-1,-3.858419955E-1,5.147013187E0,5.186571211E0
1.158478154E0,-5.098059773E-1,-3.858419955E-1,5.147013187E0,5.186571211E0
1.162418558E0,-5.098059773E-1,-3.858419955E-1,5.147013187E0,5.186571211E0
1.166359481E0,-5.098059773E-1,-3.858419955E-1,5.147013187E0,5.186571211E0
1.170300635E0,-5.098059773E-1,-3.858419955E-1,5.147013187E0,5.186571211E0
1.174241332E0,-4.554840028E-1,-8.481130004E-1,5.546807766E0,5.629728033E0
1.178182794E0,-4.554840028E-1,-8.481130004E-1,5.546807766E0,5.629728033E0
1.182124024E0,-4.554840028E-1,-8.481130004E-1,5.546807766E0,5.629728033E0
1.186065029E0,-4.554840028E-1,-8.481130004E-1,5.546807766E0,5.629728033E0
1.190006491E0,-4.554840028E-1,-8.481130004E-1,5.546807766E0,5.629728033E0
1.193947414E0,-7.536489964E-1,-8.617860079E-1,4.898663998E0,5.030663067E0
1.197888313E0,-7.536489964E-1,-8.617860079E-1,4.898663998E0,5.030663067E0
1.201829621E0,-7.536489964E-1,-8.617860079E-1,4.898663998E0,5.030663067E0
1.205770775E0,-7.536489964E-1,-8.617860079E-1,4.898663998E0,5.030663067E0
1.209712033E0,-7.536489964E-1,-8.617860079E-1,4.898663998E0,5.030663067E0
1.213653264E0,-3.883270025E-1,-7.255070210E-1,3.548089981E0,3.642265890E0
1.217594187E0,-3.883270025E-1,-7.255070210E-1,3.548089981E0,3.642265890E0
1.221535106E0,-3.883270025E-1,-7.255070210E-1,3.548089981E0,3.642265890E0
1.225476260E0,-3.883270025E-1,-7.255070210E-1,3.548089981E0,3.642265890E0
1.229446576E0,-2.345509976E-1,-5.945649743E-1,2.440948009E0,2.523241737E0
1.233416867E0,-2.345509976E-1,-5.945649743E-1,2.440948009E0,2.523241737E0
1.237298404E0,-2.345509976E-1,-5.945649743E-1,2.440948009E0,2.523241737E0
1.241238789E0,-2.345509976E-1,-5.945649743E-1,2.440948009E0,2.523241737E0
1.245179669E0,-2.345509976E-1,-5.945649743E-1,2.440948009E0,2.523241737E0
1.249120361E0,-2.345509976E-1,-5.945649743E-1,2.440948009E0,2.523241737E0
1.253060976E0,-3.959119916E-1,-3.517090082E-1,-6.367520094E-1,8.281899861E-1
1.257001288E0,-3.959119916E-1,-3.517090082E-1,-6.367520094E-1,8.281899861E-1
1.260941904E0,-3.959119916E-1,-3.517090082E-1,-6.367520094E-1,8.281899861E-1
1.264882519E0,-3.959119916E-1,-3.517090082E-1,-6.367520094E-1,8.281899861E-1
1.268823139E0,-3.959119916E-1,-3.517090082E-1,-6.367520094E-1,8.281899861E-1
1.272764062E0,-5.144019723E-1,-3.799139857E-1,-1.583659053E0,1.707899301E0
1.276704909E0,-5.144019723E-1,-3.799139857E-1,-1.583659053E0,1.707899301E0
1.280645861E0,-5.144019723E-1,-3.799139857E-1,-1.583659053E0,1.707899301E0
1.284585630E0,-5.144019723E-1,-3.799139857E-1,-1.583659053E0,1.707899301E0
1.288526245E0,-5.144019723E-1,-3.799139857E-1,-1.583659053E0,1.707899301E0
1.292466856E0,-1.164705038E0,-3.835009933E-1,-8.671079874E-1,1.501827919E0
1.296408317E0,-1.164705038E0,-3.835009933E-1,-8.671079874E-1,1.501827919E0
1.300349240E0,-1.164705038E0,-3.835009933E-1,-8.671079874E-1,1.501827919E0
1.304289851E0,-1.164705038E0,-3.835009933E-1,-8.671079874E-1,1.501827919E0
1.308230543E0,-1.164705038E0,-3.835009933E-1,-8.671079874E-1,1.501827919E0
1.312171389E0,-1.178295970E0,-4.935609996E-1,-4.647969902E-1,1.359419029E0
1.316111457E0,-1.178295970E0,-4.935609996E-1,-4.647969902E-1,1.359419029E0
1.320051996E0,-1.178295970E0,-4.935609996E-1,-4.647969902E-1,1.359419029E0
1.323992688E0,-1.178295970E0,-4.935609996E-1,-4.647969902E-1,1.359419029E0
1.327933534E0,-1.178295970E0,-4.935609996E-1,-4.647969902E-1,1.359419029E0
1.331874226E0,-8.042979836E-1,-7.672700286E-1,-8.275870085E-1,1.385820623E0
1.335814765E0,-8.042979836E-1,-7.672700286E-1,-8.275870085E-1,1.385820623E0
1.339755356E0,-8.042979836E-1,-7.672700286E-1,-8.275870085E-1,1.385820623E0
1.343696049E0,-8.042979836E-1,-7.672700286E-1,-8.275870085E-1,1.385820623E0
1.347636895E0,-8.042979836E-1,-7.672700286E-1,-8.275870085E-1,1.385820623E0
1.351577890E0,-5.197569728E-1,-6.606230140E-1,-1.676264048E0,1.875214984E0
1.355518736E0,-5.197569728E-1,-6.606230140E-1,-1.676264048E0,1.875214984E0
1.359459121E0,-5.197569728E-1,-6.606230140E-1,-1.676264048E0,1.875214984E0
1.363399423E0,-5.197569728E-1,-6.606230140E-1,-1.676264048E0,1.875214984E0
1.367340269E0,-5.197569728E-1,-6.606230140E-1,-1.676264048E0,1.875214984E0
1.371280654E0,-5.197569728E-1,-6.606230140E-1,-1.676264048E0,1.875214984E0
1.375220847E0,-1.181936979E0,-5.100849867E-1,-2.908576012E0,3.180719436E0
1.379162770E0,-1.181936979E0,-5.100849867E-1,-2.908576012E0,3.180719436E0
1.383103308E0,-1.181936979E0,-5.100849867E-1,-2.908576012E0,3.180719436E0
1.387043732E0,-1.181936979E0,-5.100849867E-1,-2.908576012E0,3.180719436E0
1.390984655E0,-1.181936979E0,-5.100849867E-1,-2.908576012E0,3.180719436E0
1.394925271E0,-1.667608976E0,-1.036008000E0,-3.162030935E0,3.721917773E0
1.398865607E0,-1.667608976E0,-1.036008000E0,-3.162030935E0,3.721917773E0
1.402806761E0,-1.667608976E0,-1.036008000E0,-3.162030935E0,3.721917773E0
1.406747376E0,-1.667608976E0,-1.036008000E0,-3.162030935E0,3.721917773E0
1.410686458E0,-1.667608976E0,-1.036008000E0,-3.162030935E0,3.721917773E0
1.414626843E0,-1.220064044E0,-1.270887017E0,-3.281959057E0,3.724911453E0
1.418567382E0,-1.220064044E0,-1.270887017E0,-3.281959057E0,3.724911453E0
1.422507462E0,-1.220064044E0,-1.270887017E0,-3.281959057E0,3.724911453E0
1.426448001E0,-1.220064044E0,-1.270887017E0,-3.281959057E0,3.724911453E0
1.430388592E0,-4.756790102E-1,-1.535503983E0,-3.517544985E0,3.867449512E0
1.434329515E0,-4.756790102E-1,-1.535503983E0,-3.517544985E0,3.867449512E0
1.438269900E0,-4.756790102E-1,-1.535503983E0,-3.517544985E0,3.867449512E0
1.442210823E0,-4.756790102E-1,-1.535503983E0,-3.517544985E0,3.867449512E0
1.446151433E0,-4.756790102E-1,-1.535503983E0,-3.517544985E0,3.867449512E0
1.450091741E0,-4.756790102E-1,-1.535503983E0,-3.517544985E0,3.867449512E0
1.454032357E0,-8.855500072E-2,-7.261649966E-1,-4.114192963E0,4.178724844E0
1.457972353E0,-8.855500072E-2,-7.261649966E-1,-4.114192963E0,4.178724844E0
1.461912891E0,-8.855500072E-2,-7.261649966E-1,-4.114192963E0,4.178724844E0
1.465852968E0,-8.855500072E-2,-7.261649966E-1,-4.114192963E0,4.178724844E0
1.469793266E0,-8.855500072E-2,-7.261649966E-1,-4.114192963E0,4.178724844E0
1.473733881E0,-7.751179934E-1,4.297859967E-1,-5.940640926E0,6.006391473E0
1.477676035E0,-7.751179934E-1,4.297859967E-1,-5.940640926E0,6.006391473E0
1.481616573E0,-7.751179934E-1,4.297859967E-1,-5.940640926E0,6.006391473E0
1.485557266E0,-7.751179934E-1,4.297859967E-1,-5.940640926E0,6.006391473E0
1.489497881E0,-7.751179934E-1,4.297859967E-1,-5.940640926E0,6.006391473E0
1.493439016E0,-1.308215976E0,1.203870058E0,-5.908627987E0,6.170301196E0
1.497379708E0,-1.308215976E0,1.203870058E0,-5.908627987E0,6.170301196E0
1.501320939E0,-1.308215976E0,1.203870058E0,-5.908627987E0,6.170301196E0
1.505261261E0,-1.308215976E0,1.203870058E0,-5.908627987E0,6.170301196E0
1.509202184E0,-1.308215976E0,1.203870058E0,-5.908627987E0,6.170301196E0
1.513142799E0,-1.379395008E0,9.821029902E-1,-3.970113993E0,4.316139709E0
1.517083328E0,-1.379395008E0,9.821029902E-1,-3.970113993E0,4.316139709E0
1.521023405E0,-1.379395008E0,9.821029902E-1,-3.970113993E0,4.316139709E0
1.524964251E0,-1.379395008E0,9.821029902E-1,-3.970113993E0,4.316139709E0
1.528905179E0,-1.379395008E0,9.821029902E-1,-3.970113993E0,4.316139709E0
1.532846102E0,-1.223615050E0,9.672600031E-1,-2.006793976E0,2.541662402E0
1.536786794E0,-1.223615050E0,9.672600031E-1,-2.006793976E0,2.541662402E0
1.540727410E0,-1.223615050E0,9.672600031E-1,-2.006793976E0,2.541662402E0
1.544667333E0,-1.223615050E0,9.672600031E-1,-2.006793976E0,2.541662402E0
1.548607333E0,-1.223615050E0,9.672600031E-1,-2.006793976E0,2.541662402E0
1.552548583E0,-8.130329847E-1,1.035294056E0,-9.712489843E-1,1.635903728E0
1.556489275E0,-8.130329847E-1,1.035294056E0,-9.712489843E-1,1.635903728E0
1.560430121E0,-8.130329847E-1,1.035294056E0,-9.712489843E-1,1.635903728E0
1.564371102E0,-8.130329847E-1,1.035294056E0,-9.712489843E-1,1.635903728E0
1.568312025E0,-8.130329847E-1,1.035294056E0,-9.712489843E-1,1.635903728E0
1.572253025E0,8.345299959E-2,1.263736963E0,-1.011415005E0,1.620788644E0
1.576193866E0,8.345299959E-2,1.263736963E0,-1.011415005E0,1.620788644E0
1.580134559E0,8.345299959E-2,1.263736963E0,-1.011415005E0,1.620788644E0
1.584075174E0,8.345299959E-2,1.263736963E0,-1.011415005E0,1.620788644E0
1.588016039E0,8.345299959E-2,1.263736963E0,-1.011415005E0,1.620788644E0
1.591957270E0,7.702440023E-1,1.293652058E0,-7.905079722E-1,1.700504138E0
1.595898193E0,7.702440023E-1,1.293652058E0,-7.905079722E-1,1.700504138E0
1.599838819E0,7.702440023E-1,1.293652058E0,-7.905079722E-1,1.700504138E0
1.603779742E0,7.702440023E-1,1.293652058E0,-7.905079722E-1,1.700504138E0
1.607720434E0,7.702440023E-1,1.293652058E0,-7.905079722E-1,1.700504138E0
1.611660434E0,8.876420259E-1,1.354298949E0,3.185929954E-1,1.650313760E0
1.615600972E0,8.876420259E-1,1.354298949E0,3.185929954E-1,1.650313760E0
1.619540972E0,8.876420259E-1,1.354298949E0,3.185929954E-1,1.650313760E0
1.623481679E0,8.876420259E-1,1.354298949E0,3.185929954E-1,1.650313760E0
1.627422602E0,8.876420259E-1,1.354298949E0,3.185929954E-1,1.650313760E0
1.631363799E0,5.225530267E-1,1.456277013E0,1.349537969E0,2.053060431E0
1.635303799E0,5.225530267E-1,1.456277013E0,1.349537969E0,2.053060431E0
1.639244414E0,5.225530267E-1,1.456277013E0,1.349537969E0,2.053060431E0
1.643185029E0,5.225530267E-1,1.456277013E0,1.349537969E0,2.053060431E0
1.647125645E0,5.225530267E-1,1.456277013E0,1.349537969E0,2.053060431E0
1.651066183E0,5.225530267E-1,1.456277013E0,1.349537969E0,2.053060431E0
1.655006183E0,3.700000161E-5,1.622197986E0,2.135577917E0,2.681831342E0
1.658946467E0,3.700000161E-5,1.622197986E0,2.135577917E0,2.681831342E0
1.662887390E0,3.700000161E-5,1.622197986E0,2.135577917E0,2.681831342E0
1.666828005E0,3.700000161E-5,1.622197986E0,2.135577917E0,2.681831342E0
1.670768280E0,3.700000161E-5,1.622197986E0,2.135577917E0,2.681831342E0
1.674708049E0,-1.694270074E-1,1.416043997E0,2.976584911E0,3.300597498E0
1.678648973E0,-1.694270074E-1,1.416043997E0,2.976584911E0,3.300597498E0
1.682589222E0,-1.694270074E-1,1.416043997E0,2.976584911E0,3.300597498E0
1.686529530E0,-1.694270074E-1,1.416043997E0,2.976584911E0,3.300597498E0
1.690469915E0,-1.694270074E-1,1.416043997E0,2.976584911E0,3.300597498E0
1.694410472E0,-2.673549950E-1,1.213220954E0,3.515685081E0,3.728729726E0
1.698350241E0,-2.673549950E-1,1.213220954E0,3.515685081E0,3.728729726E0
1.702290857E0,-2.673549950E-1,1.213220954E0,3.515685081E0,3.728729726E0
1.706230876E0,-2.673549950E-1,1.213220954E0,3.515685081E0,3.728729726E0
1.710171107E0,-2.673549950E-1,1.213220954E0,3.515685081E0,3.728729726E0
1.714111491E0,-2.036660016E-1,9.195420146E-1,3.788428068E0,3.903744944E0
1.718052122E0,-2.036660016E-1,9.195420146E-1,3.788428068E0,3.903744944E0
1.721992045E0,-2.036660016E-1,9.195420146E-1,3.788428068E0,3.903744944E0
1.725932429E0,-2.036660016E-1,9.195420146E-1,3.788428068E0,3.903744944E0
1.729873597E0,-2.036660016E-1,9.195420146E-1,3.788428068E0,3.903744944E0
1.733814597E0,-6.689500064E-2,5.857499838E-1,3.914213896E0,3.958364360E0
1.737754905E0,-6.689500064E-2,5.857499838E-1,3.914213896E0,3.958364360E0
1.741695746E0,-6.689500064E-2,5.857499838E-1,3.914213896E0,3.958364360E0
1.745636361E0,-6.689500064E-2,5.857499838E-1,3.914213896E0,3.958364360E0
1.749576669E0,-6.689500064E-2,5.857499838E-1,3.914213896E0,3.958364360E0
1.753517040E0,3.025599942E-2,1.414230019E-1,3.948674917E0,3.951322499E0
1.757457886E0,3.025599942E-2,1.414230019E-1,3.948674917E0,3.951322499E0
1.761398501E0,3.025599942E-2,1.414230019E-1,3.948674917E0,3.951322499E0
1.765339194E0,3.025599942E-2,1.414230019E-1,3.948674917E0,3.951322499E0
1.769280040E0,3.025599942E-2,1.414230019E-1,3.948674917E0,3.951322499E0
1.773220424E0,-4.699299857E-2,-1.454569995E-1,3.484954119E0,3.488304931E0
1.777161308E0,-4.699299857E-2,-1.454569995E-1,3.484954119E0,3.488304931E0
1.781101847E0,-4.699299857E-2,-1.454569995E-1,3.484954119E0,3.488304931E0
1.785042462E0,-4.699299857E-2,-1.454569995E-1,3.484954119E0,3.488304931E0
1.788982838E0,-4.699299857E-2,-1.454569995E-1,3.484954119E0,3.488304931E0
1.792924069E0,-3.980039954E-1,-2.830039859E-1,3.002942085E0,3.042393729E0
1.796865223E0,-3.980039954E-1,-2.830039859E-1,3.002942085E0,3.042393729E0
1.800806136E0,-3.980039954E-1,-2.830039859E-1,3.002942085E0,3.042393729E0
1.804746213E0,-3.980039954E-1,-2.830039859E-1,3.002942085E0,3.042393729E0
1.808686751E0,-3.980039954E-1,-2.830039859E-1,3.002942085E0,3.042393729E0
1.812627684E0,-7.331380248E-1,-2.871479988E-1,1.904253006E0,2.060612736E0
1.816568376E0,-7.331380248E-1,-2.871479988E-1,1.904253006E0,2.060612736E0
1.820509300E0,-7.331380248E-1,-2.871479988E-1,1.904253006E0,2.060612736E0
1.824449314E0,-7.331380248E-1,-2.871479988E-1,1.904253006E0,2.060612736E0
1.828390160E0,-7.331380248E-1,-2.871479988E-1,1.904253006E0,2.060612736E0
1.832967083E0,-5.748469830E-1,-6.392610073E-1,8.170379996E-1,1.186024781E0
1.836272621E0,-5.748469830E-1,-6.392610073E-1,8.170379996E-1,1.186024781E0
1.840214237E0,-5.748469830E-1,-6.392610073E-1,8.170379996E-1,1.186024781E0
1.844155160E0,-5.748469830E-1,-6.392610073E-1,8.170379996E-1,1.186024781E0
1.848096025E0,-5.748469830E-1,-6.392610073E-1,8.170379996E-1,1.186024781E0
1.852036948E0,-1.133882046E0,-1.178318024E0,9.910539985E-1,1.912147977E0
1.855977640E0,-1.133882046E0,-1.178318024E0,9.910539985E-1,1.912147977E0
1.859918194E0,-1.133882046E0,-1.178318024E0,9.910539985E-1,1.912147977E0
1.863859117E0,-1.133882046E0,-1.178318024E0,9.910539985E-1,1.912147977E0
1.867799117E0,-1.133882046E0,-1.178318024E0,9.910539985E-1,1.912147977E0
1.871739789E0,-1.245030999E0,-1.430946946E0,1.006060004E0,2.147060335E0
1.875680943E0,-1.245030999E0,-1.430946946E0,1.006060004E0,2.147060335E0
1.879621328E0,-1.245030999E0,-1.430946946E0,1.006060004E0,2.147060335E0
1.883560044E0,-1.245030999E0,-1.430946946E0,1.006060004E0,2.147060335E0
1.887500275E0,-1.245030999E0,-1.430946946E0,1.006060004E0,2.147060335E0
1.891440659E0,-3.778040111E-1,-2.021497965E0,4.243800044E-2,2.056937256E0
1.895381208E0,-3.778040111E-1,-2.021497965E0,4.243800044E-2,2.056937256E0
1.899321823E0,-3.778040111E-1,-2.021497965E0,4.243800044E-2,2.056937256E0
1.903262746E0,-3.778040111E-1,-2.021497965E0,4.243800044E-2,2.056937256E0
1.907203044E0,-3.778040111E-1,-2.021497965E0,4.243800044E-2,2.056937256E0
1.911143121E0,-3.778040111E-1,-2.021497965E0,4.243800044E-2,2.056937256E0
1.915083659E0,8.315780163E-1,-2.386102915E0,-1.852501035E0,3.133172386E0
1.919024323E0,8.315780163E-1,-2.386102915E0,-1.852501035E0,3.133172386E0
1.922964553E0,8.315780163E-1,-2.386102915E0,-1.852501035E0,3.133172386E0
1.926904861E0,8.315780163E-1,-2.386102915E0,-1.852501035E0,3.133172386E0
1.930845237E0,8.315780163E-1,-2.386102915E0,-1.852501035E0,3.133172386E0
1.934785775E0,4.130440056E-1,-2.037699938E0,-2.601619959E0,3.330353254E0
1.938726391E0,4.130440056E-1,-2.037699938E0,-2.601619959E0,3.330353254E0
1.942667020E0,4.130440056E-1,-2.037699938E0,-2.601619959E0,3.330353254E0
1.946607635E0,4.130440056E-1,-2.037699938E0,-2.601619959E0,3.330353254E0
1.950547712E0,4.130440056E-1,-2.037699938E0,-2.601619959E0,3.330353254E0
1.954489241E0,-5.465149879E-1,-1.388843060E0,-2.311450958E0,2.751430393E0
1.958429856E0,-5.465149879E-1,-1.388843060E0,-2.311450958E0,2.751430393E0
1.962368625E0,-5.465149879E-1,-1.388843060E0,-2.311450958E0,2.751430393E0
1.966309227E0,-5.465149879E-1,-1.388843060E0,-2.311450958E0,2.751430393E0
1.970249842E0,-5.465149879E-1,-1.388843060E0,-2.311450958E0,2.751430393E0
1.974190688E0,-3.866040111E-1,-1.718194008E0,-2.439711094E0,3.008960540E0
1.978131083E0,-3.866040111E-1,-1.718194008E0,-2.439711094E0,3.008960540E0
1.982071622E0,-3.866040111E-1,-1.718194008E0,-2.439711094E0,3.008960540E0
1.986011698E0,-3.866040111E-1,-1.718194008E0,-2.439711094E0,3.008960540E0
1.989952006E0,-3.866040111E-1,-1.718194008E0,-2.439711094E0,3.008960540E0
1.993892852E0,8.024460077E-1,-1.586019993E0,-2.930105925E0,3.427083270E0
1.997833160E0,8.024460077E-1,-1.586019993E0,-2.930105925E0,3.427083270E0
2.001773549E0,8.024460077E-1,-1.586019993E0,-2.930105925E0,3.427083270E0
2.005714472E0,8.024460077E-1,-1.586019993E0,-2.930105925E0,3.427083270E0
2.009654779E0,8.024460077E-1,-1.586019993E0,-2.930105925E0,3.427083270E0
2.013595328E0,1.247635961E0,-6.032459736E-1,-3.643457890E0,3.898113209E0
2.017536251E0,1.247635961E0,-6.032459736E-1,-3.643457890E0,3.898113209E0
2.021477482E0,1.247635961E0,-6.032459736E-1,-3.643457890E0,3.898113209E0
2.025418424E0,1.247635961E0,-6.032459736E-1,-3.643457890E0,3.898113209E0
2.029388481E0,1.193377018E0,4.623839855E-1,-4.767846107E0,4.936628826E0
2.033358502E0,1.193377018E0,4.623839855E-1,-4.767846107E0,4.936628826E0
2.037239655E0,1.193377018E0,4.623839855E-1,-4.767846107E0,4.936628826E0
2.041180039E0,1.193377018E0,4.623839855E-1,-4.767846107E0,4.936628826E0
2.045121193E0,1.193377018E0,4.623839855E-1,-4.767846107E0,4.936628826E0
2.049061904E0,1.193377018E0,4.623839855E-1,-4.767846107E0,4.936628826E0
2.053002212E0,4.118719995E-1,1.811508060E0,-6.192377090E0,6.465039368E0
2.056943058E0,4.118719995E-1,1.811508060E0,-6.192377090E0,6.465039368E0
2.060883081E0,4.118719995E-1,1.811508060E0,-6.192377090E0,6.465039368E0
2.064823697E0,4.118719995E-1,1.811508060E0,-6.192377090E0,6.465039368E0
2.068764389E0,4.118719995E-1,1.811508060E0,-6.192377090E0,6.465039368E0
2.072705240E0,2.304700017E-2,2.210450888E0,-5.073007107E0,5.533717141E0
2.076645856E0,2.304700017E-2,2.210450888E0,-5.073007107E0,5.533717141E0
2.080586548E0,2.304700017E-2,2.210450888E0,-5.073007107E0,5.533717141E0
2.084527150E0,2.304700017E-2,2.210450888E0,-5.073007107E0,5.533717141E0
2.088467996E0,2.304700017E-2,2.210450888E0,-5.073007107E0,5.533717141E0
2.092409304E0,1.321659982E-1,1.737514973E0,-2.599610090E0,3.129600414E0
2.096349928E0,1.321659982E-1,1.737514973E0,-2.599610090E0,3.129600414E0
2.100290774E0,1.321659982E-1,1.737514973E0,-2.599610090E0,3.129600414E0
2.104231389E0,1.321659982E-1,1.737514973E0,-2.599610090E0,3.129600414E0
2.108171500E0,1.321659982E-1,1.737514973E0,-2.599610090E0,3.129600414E0
2.112112423E0,9.725900292E-1,1.437973976E0,-7.108240128E-1,1.875892134E0
2.116053577E0,9.725900292E-1,1.437973976E0,-7.108240128E-1,1.875892134E0
2.119994567E0,9.725900292E-1,1.437973976E0,-7.108240128E-1,1.875892134E0
2.123935798E0,9.725900292E-1,1.437973976E0,-7.108240128E-1,1.875892134E0
2.127876721E0,9.725900292E-1,1.437973976E0,-7.108240128E-1,1.875892134E0
2.131816928E0,1.506414056E0,1.227707028E0,-4.001359940E-1,1.984100972E0
2.135757543E0,1.506414056E0,1.227707028E0,-4.001359940E-1,1.984100972E0
2.139697543E0,1.506414056E0,1.227707028E0,-4.001359940E-1,1.984100972E0
2.143637876E0,1.506414056E0,1.227707028E0,-4.001359940E-1,1.984100972E0
2.147578491E0,1.506414056E0,1.227707028E0,-4.001359940E-1,1.984100972E0
2.151519414E0,1.769245982E0,9.887620211E-1,-3.431009948E-1,2.055626418E0
2.155460141E0,1.769245982E0,9.887620211E-1,-3.431009948E-1,2.055626418E0
2.159400987E0,1.769245982E0,9.887620211E-1,-3.431009948E-1,2.055626418E0
2.163341602E0,1.769245982E0,9.887620211E-1,-3.431009948E-1,2.055626418E0
2.167281650E0,1.769245982E0,9.887620211E-1,-3.431009948E-1,2.055626418E0
2.171221958E0,1.392843962E0,9.387900233E-1,-2.263100073E-2,1.679837246E0
2.175162881E0,1.392843962E0,9.387900233E-1,-2.263100073E-2,1.679837246E0
2.179103501E0,1.392843962E0,9.387900233E-1,-2.263100073E-2,1.679837246E0
2.183044040E0,1.392843962E0,9.387900233E-1,-2.263100073E-2,1.679837246E0
2.186984117E0,1.392843962E0,9.387900233E-1,-2.263100073E-2,1.679837246E0
2.190924405E0,1.392843962E0,9.387900233E-1,-2.263100073E-2,1.679837246E0
2.194865021E0,8.714699745E-2,1.320417047E0,9.926540256E-1,1.654224226E0
2.198805559E0,8.714699745E-2,1.320417047E0,9.926540256E-1,1.654224226E0
2.202745535E0,8.714699745E-2,1.320417047E0,9.926540256E-1,1.654224226E0
2.206685612E0,8.714699745E-2,1.320417047E0,9.926540256E-1,1.654224226E0
2.210625843E0,8.714699745E-2,1.320417047E0,9.926540256E-1,1.654224226E0
2.214567977E0,-7.528380156E-1,1.397251964E0,1.695328951E0,2.322330377E0
2.218508900E0,-7.528380156E-1,1.397251964E0,1.695328951E0,2.322330377E0
2.222449284E0,-7.528380156E-1,1.397251964E0,1.695328951E0,2.322330377E0
2.226389520E0,-7.528380156E-1,1.397251964E0,1.695328951E0,2.322330377E0
2.230329828E0,-1.104450941E0,1.140022039E0,2.522411108E0,2.980271788E0
2.234269905E0,-1.104450941E0,1.140022039E0,2.522411108E0,2.980271788E0
2.238210414E0,-1.104450941E0,1.140022039E0,2.522411108E0,2.980271788E0
2.242151414E0,-1.104450941E0,1.140022039E0,2.522411108E0,2.980271788E0
2.246091953E0,-1.104450941E0,1.140022039E0,2.522411108E0,2.980271788E0
2.250032342E0,-1.104450941E0,1.140022039E0,2.522411108E0,2.980271788E0
2.253973189E0,-1.356277943E0,7.531179786E-1,3.673736095E0,3.987858253E0
2.257913881E0,-1.356277943E0,7.531179786E-1,3.673736095E0,3.987858253E0
2.261854525E0,-1.356277943E0,7.531179786E-1,3.673736095E0,3.987858253E0
2.265795372E0,-1.356277943E0,7.531179786E-1,3.673736095E0,3.987858253E0
2.269736295E0,-1.356277943E0,7.531179786E-1,3.673736095E0,3.987858253E0
2.273675462E0,-1.047549009E0,1.960150003E-1,4.000687122E0,4.140202683E0
2.277616001E0,-1.047549009E0,1.960150003E-1,4.000687122E0,4.140202683E0
2.281556309E0,-1.047549009E0,1.960150003E-1,4.000687122E0,4.140202683E0
2.285496357E0,-1.047549009E0,1.960150003E-1,4.000687122E0,4.140202683E0
2.289436664E0,-1.047549009E0,1.960150003E-1,4.000687122E0,4.140202683E0
2.293376895E0,-5.442460179E-1,-6.563600153E-2,3.688442945E0,3.728957384E0
2.297317582E0,-5.442460179E-1,-6.563600153E-2,3.688442945E0,3.728957384E0
2.301258121E0,-5.442460179E-1,-6.563600153E-2,3.688442945E0,3.728957384E0
2.305198505E0,-5.442460179E-1,-6.563600153E-2,3.688442945E0,3.728957384E0
2.309139367E0,-5.442460179E-1,-6.563600153E-2,3.688442945E0,3.728957384E0
2.313080290E0,1.143930033E-1,-2.739390135E-1,3.403177977E0,3.416101386E0
2.317020982E0,1.143930033E-1,-2.739390135E-1,3.403177977E0,3.416101386E0
2.320961217E0,1.143930033E-1,-2.739390135E-1,3.403177977E0,3.416101386E0
2.324902217E0,1.143930033E-1,-2.739390135E-1,3.403177977E0,3.416101386E0
2.328842832E0,1.143930033E-1,-2.739390135E-1,3.403177977E0,3.416101386E0
2.332783741E0,6.514250040E-1,-4.392589927E-1,3.175348043E0,3.271106570E0
2.336724664E0,6.514250040E-1,-4.392589927E-1,3.175348043E0,3.271106570E0
2.340664895E0,6.514250040E-1,-4.392589927E-1,3.175348043E0,3.271106570E0
2.344605280E0,6.514250040E-1,-4.392589927E-1,3.175348043E0,3.271106570E0
2.348545895E0,6.514250040E-1,-4.392589927E-1,3.175348043E0,3.271106570E0
2.352486511E0,5.887519717E-1,-4.672879875E-1,3.105804920E0,3.195467282E0
2.356427059E0,5.887519717E-1,-4.672879875E-1,3.105804920E0,3.195467282E0
2.360367059E0,5.887519717E-1,-4.672879875E-1,3.105804920E0,3.195467282E0
2.364307367E0,5.887519717E-1,-4.672879875E-1,3.105804920E0,3.195467282E0
2.368247453E0,5.887519717E-1,-4.672879875E-1,3.105804920E0,3.195467282E0
2.372187145E0,2.387900092E-2,-1.887860000E-1,2.134814978E0,2.143279111E0
2.376126837E0,2.387900092E-2,-1.887860000E-1,2.134814978E0,2.143279111E0
2.380066760E0,2.387900092E-2,-1.887860000E-1,2.134814978E0,2.143279111E0
2.384007068E0,2.387900092E-2,-1.887860000E-1,2.134814978E0,2.143279111E0
2.387947068E0,2.387900092E-2,-1.887860000E-1,2.134814978E0,2.143279111E0
2.391887376E0,-4.261170030E-1,9.124899656E-2,5.368739963E-1,6.914736202E-1
2.395827376E0,-4.261170030E-1,9.124899656E-2,5.368739963E-1,6.914736202E-1
2.399767684E0,-4.261170030E-1,9.124899656E-2,5.368739963E-1,6.914736202E-1
2.403707472E0,-4.261170030E-1,9.124899656E-2,5.368739963E-1,6.914736202E-1
2.407647779E0,-4.261170030E-1,9.124899656E-2,5.368739963E-1,6.914736202E-1
2.411588395E0,-1.573459953E-1,-1.474090070E-1,-6.651939750E-1,6.992640431E-1
2.415529309E0,-1.573459953E-1,-1.474090070E-1,-6.651939750E-1,6.992640431E-1
2.419470232E0,-1.573459953E-1,-1.474090070E-1,-6.651939750E-1,6.992640431E-1
2.423411463E0,-1.573459953E-1,-1.474090070E-1,-6.651939750E-1,6.992640431E-1
2.427352097E0,-1.573459953E-1,-1.474090070E-1,-6.651939750E-1,6.992640431E-1
2.431292713E0,-7.013799995E-2,-6.169049740E-1,-8.864510059E-1,1.082259891E0
2.435233020E0,-7.013799995E-2,-6.169049740E-1,-8.864510059E-1,1.082259891E0
2.439174193E0,-7.013799995E-2,-6.169049740E-1,-8.864510059E-1,1.082259891E0
2.443114809E0,-7.013799995E-2,-6.169049740E-1,-8.864510059E-1,1.082259891E0
2.447055732E0,-7.013799995E-2,-6.169049740E-1,-8.864510059E-1,1.082259891E0
2.450996655E0,-7.013799995E-2,-6.169049740E-1,-8.864510059E-1,1.082259891E0
2.454937270E0,-5.691999942E-2,-1.114768028E0,-8.805140257E-1,1.421707633E0
2.458878193E0,-5.691999942E-2,-1.114768028E0,-8.805140257E-1,1.421707633E0
2.462818184E0,-5.691999942E-2,-1.114768028E0,-8.805140257E-1,1.421707633E0
2.466759184E0,-5.691999942E-2,-1.114768028E0,-8.805140257E-1,1.421707633E0
2.470699723E0,-5.691999942E-2,-1.114768028E0,-8.805140257E-1,1.421707633E0
2.474640121E0,2.084189951E-1,-1.407158971E0,-6.087380052E-1,1.547286918E0
2.478580121E0,2.084189951E-1,-1.407158971E0,-6.087380052E-1,1.547286918E0
2.482520737E0,2.084189951E-1,-1.407158971E0,-6.087380052E-1,1.547286918E0
2.486461034E0,2.084189951E-1,-1.407158971E0,-6.087380052E-1,1.547286918E0
2.490401034E0,2.084189951E-1,-1.407158971E0,-6.087380052E-1,1.547286918E0
2.494341650E0,6.336789727E-1,-1.632830977E0,-9.376810193E-1,1.986688636E0
2.498281626E0,6.336789727E-1,-1.632830977E0,-9.376810193E-1,1.986688636E0
2.502221934E0,6.336789727E-1,-1.632830977E0,-9.376810193E-1,1.986688636E0
2.506162241E0,6.336789727E-1,-1.632830977E0,-9.376810193E-1,1.986688636E0
2.510102549E0,6.336789727E-1,-1.632830977E0,-9.376810193E-1,1.986688636E0
2.514043087E0,3.578850031E-1,-1.246227980E0,-1.956771970E0,2.347364990E0
2.517983164E0,3.578850031E-1,-1.246227980E0,-1.956771970E0,2.347364990E0
2.521923688E0,3.578850031E-1,-1.246227980E0,-1.956771970E0,2.347364990E0
2.525863996E0,3.578850031E-1,-1.246227980E0,-1.956771970E0,2.347364990E0
2.529804611E0,3.578850031E-1,-1.246227980E0,-1.956771970E0,2.347364990E0
2.533744693E0,-3.214010000E-1,-1.026600957E0,-3.268666983E0,3.441132368E0
2.537684924E0,-3.214010000E-1,-1.026600957E0,-3.268666983E0,3.441132368E0
2.541625231E0,-3.214010000E-1,-1.026600957E0,-3.268666983E0,3.441132368E0
2.545565235E0,-3.214010000E-1,-1.026600957E0,-3.268666983E0,3.441132368E0
2.549505235E0,-3.214010000E-1,-1.026600957E0,-3.268666983E0,3.441132368E0
2.553445543E0,-6.754149795E-1,-1.095199943E0,-3.987747908E0,4.190200673E0
2.557385837E0,-6.754149795E-1,-1.095199943E0,-3.987747908E0,4.190200673E0
2.561326452E0,-6.754149795E-1,-1.095199943E0,-3.987747908E0,4.190200673E0
2.565266529E0,-6.754149795E-1,-1.095199943E0,-3.987747908E0,4.190200673E0
2.569206534E0,-2.433000058E-1,-1.255673051E0,-3.081192017E0,3.336113599E0
2.573146149E0,-2.433000058E-1,-1.255673051E0,-3.081192017E0,3.336113599E0
2.577086226E0,-2.433000058E-1,-1.255673051E0,-3.081192017E0,3.336113599E0
2.581026461E0,-2.433000058E-1,-1.255673051E0,-3.081192017E0,3.336113599E0
2.584966769E0,-2.433000058E-1,-1.255673051E0,-3.081192017E0,3.336113599E0
2.588907384E0,-2.433000058E-1,-1.255673051E0,-3.081192017E0,3.336113599E0
2.592848058E0,3.418439925E-1,-1.652866006E0,-2.567300081E0,3.072434386E0
2.596788596E0,3.418439925E-1,-1.652866006E0,-2.567300081E0,3.072434386E0
2.600729211E0,3.418439925E-1,-1.652866006E0,-2.567300081E0,3.072434386E0
2.604669601E0,3.418439925E-1,-1.652866006E0,-2.567300081E0,3.072434386E0
2.608610216E0,3.418439925E-1,-1.652866006E0,-2.567300081E0,3.072434386E0
2.612551140E0,1.104450002E-1,-8.069220185E-1,-4.269429207E0,4.346417720E0
2.616491442E0,1.104450002E-1,-8.069220185E-1,-4.269429207E0,4.346417720E0
2.620431981E0,1.104450002E-1,-8.069220185E-1,-4.269429207E0,4.346417720E0
2.624372365E0,1.104450002E-1,-8.069220185E-1,-4.269429207E0,4.346417720E0
2.628314404E0,1.104450002E-1,-8.069220185E-1,-4.269429207E0,4.346417720E0
2.632254481E0,-1.082764983E0,2.983810008E-1,-5.788794041E0,5.896740428E0
2.636194712E0,-1.082764983E0,2.983810008E-1,-5.788794041E0,5.896740428E0
2.640134712E0,-1.082764983E0,2.983810008E-1,-5.788794041E0,5.896740428E0
2.644074756E0,-1.082764983E0,2.983810008E-1,-5.788794041E0,5.896740428E0
2.648014987E0,-1.082764983E0,2.983810008E-1,-5.788794041E0,5.896740428E0
2.651955910E0,-2.196146011E0,8.078410029E-1,-4.851613998E0,5.386448067E0
2.655896213E0,-2.196146011E0,8.078410029E-1,-4.851613998E0,5.386448067E0
2.659836597E0,-2.196146011E0,8.078410029E-1,-4.851613998E0,5.386448067E0
2.663777136E0,-2.196146011E0,8.078410029E-1,-4.851613998E0,5.386448067E0
2.667717751E0,-2.196146011E0,8.078410029E-1,-4.851613998E0,5.386448067E0
2.671658136E0,-2.287141085E0,6.354439855E-1,-1.871157050E0,3.022586989E0
2.675598674E0,-2.287141085E0,6.354439855E-1,-1.871157050E0,3.022586989E0
2.679538982E0,-2.287141085E0,6.354439855E-1,-1.871157050E0,3.022586989E0
2.683479059E0,-2.287141085E0,6.354439855E-1,-1.871157050E0,3.022586989E0
2.687419059E0,-2.287141085E0,6.354439855E-1,-1.871157050E0,3.022586989E0
2.691359313E0,-1.735200047E0,3.299539983E-1,2.499620020E-1,1.783891770E0
2.695299697E0,-1.735200047E0,3.299539983E-1,2.499620020E-1,1.783891770E0
2.699240236E0,-1.735200047E0,3.299539983E-1,2.499620020E-1,1.783891770E0
2.703180543E0,-1.735200047E0,3.299539983E-1,2.499620020E-1,1.783891770E0
2.707120620E0,-1.735200047E0,3.299539983E-1,2.499620020E-1,1.783891770E0
2.711059082E0,-8.239449859E-1,5.514150262E-1,2.753440142E-1,1.028959765E0
2.714999333E0,-8.239449859E-1,5.514150262E-1,2.753440142E-1,1.028959765E0
2.718939717E0,-8.239449859E-1,5.514150262E-1,2.753440142E-1,1.028959765E0
2.722880025E0,-8.239449859E-1,5.514150262E-1,2.753440142E-1,1.028959765E0
2.726820558E0,-8.239449859E-1,5.514150262E-1,2.753440142E-1,1.028959765E0
2.730760943E0,-8.239449859E-1,5.514150262E-1,2.753440142E-1,1.028959765E0
2.734700866E0,-3.130950034E-1,9.245600104E-1,-3.891119957E-1,1.050831975E0
2.738640333E0,-3.130950034E-1,9.245600104E-1,-3.891119957E-1,1.050831975E0
2.742580640E0,-3.130950034E-1,9.245600104E-1,-3.891119957E-1,1.050831975E0
2.746521487E0,-3.130950034E-1,9.245600104E-1,-3.891119957E-1,1.050831975E0
2.750461275E0,-3.130950034E-1,9.245600104E-1,-3.891119957E-1,1.050831975E0
2.754401275E0,3.877399862E-2,1.392200947E0,-6.123319864E-1,1.521406376E0
2.758341198E0,3.877399862E-2,1.392200947E0,-6.123319864E-1,1.521406376E0
2.762281304E0,3.877399862E-2,1.392200947E0,-6.123319864E-1,1.521406376E0
2.766222150E0,3.877399862E-2,1.392200947E0,-6.123319864E-1,1.521406376E0
2.770162458E0,3.877399862E-2,1.392200947E0,-6.123319864E-1,1.521406376E0
2.774102473E0,5.627679825E-1,1.361341000E0,1.882559955E-1,1.485058059E0
2.778043088E0,5.627679825E-1,1.361341000E0,1.882559955E-1,1.485058059E0
2.781983703E0,5.627679825E-1,1.361341000E0,1.882559955E-1,1.485058059E0
2.785923458E0,5.627679825E-1,1.361341000E0,1.882559955E-1,1.485058059E0
2.789863458E0,5.627679825E-1,1.361341000E0,1.882559955E-1,1.485058059E0
2.793803765E0,3.554280102E-1,1.378666997E0,1.562230945E0,2.113673883E0
2.797744078E0,3.554280102E-1,1.378666997E0,1.562230945E0,2.113673883E0
2.801684078E0,3.554280102E-1,1.378666997E0,1.562230945E0,2.113673883E0
2.805624309E0,3.554280102E-1,1.378666997E0,1.562230945E0,2.113673883E0
2.809564111E0,3.554280102E-1,1.378666997E0,1.562230945E0,2.113673883E0
2.813503803E0,-4.596000072E-3,1.365942955E0,2.555090904E0,2.897293704E0
2.817443496E0,-4.596000072E-3,1.365942955E0,2.555090904E0,2.897293704E0
2.821383723E0,-4.596000072E-3,1.365942955E0,2.555090904E0,2.897293704E0
2.825324338E0,-4.596000072E-3,1.365942955E0,2.555090904E0,2.897293704E0
2.829294740E0,-1.979900002E-1,1.331750035E0,2.773761988E0,3.083263492E0
2.833265069E0,-1.979900002E-1,1.331750035E0,2.773761988E0,3.083263492E0
2.837146530E0,-1.979900002E-1,1.331750035E0,2.773761988E0,3.083263492E0
2.841087145E0,-1.979900002E-1,1.331750035E0,2.773761988E0,3.083263492E0
2.845027530E0,-1.979900002E-1,1.331750035E0,2.773761988E0,3.083263492E0
2.848968991E0,-1.979900002E-1,1.331750035E0,2.773761988E0,3.083263492E0
2.852909914E0,-4.669969976E-1,9.745709896E-1,2.867794991E0,3.064657064E0
2.856850857E0,-4.669969976E-1,9.745709896E-1,2.867794991E0,3.064657064E0
2.860790318E0,-4.669969976E-1,9.745709896E-1,2.867794991E0,3.064657064E0
2.864730010E0,-4.669969976E-1,9.745709896E-1,2.867794991E0,3.064657064E0
2.868670559E0,-4.669969976E-1,9.745709896E-1,2.867794991E0,3.064657064E0
2.872610867E0,-3.571830094E-1,5.960249901E-1,2.818177938E0,2.902576852E0
2.876551174E0,-3.571830094E-1,5.960249901E-1,2.818177938E0,2.902576852E0
2.880491256E0,-3.571830094E-1,5.960249901E-1,2.818177938E0,2.902576852E0
2.884431795E0,-3.571830094E-1,5.960249901E-1,2.818177938E0,2.902576852E0
2.888372410E0,-3.571830094E-1,5.960249901E-1,2.818177938E0,2.902576852E0
2.892313020E0,2.135599963E-2,2.962549925E-1,2.637113094E0,2.653787590E0
2.896253713E0,2.135599963E-2,2.962549925E-1,2.637113094E0,2.653787590E0
2.900194636E0,2.135599963E-2,2.962549925E-1,2.637113094E0,2.653787590E0
2.904135534E0,2.135599963E-2,2.962549925E-1,2.637113094E0,2.653787590E0
2.908075765E0,2.135599963E-2,2.962549925E-1,2.637113094E0,2.653787590E0
2.912016380E0,4.304670095E-1,-2.824980021E-1,3.184178114E0,3.225538285E0
2.915957057E0,4.304670095E-1,-2.824980021E-1,3.184178114E0,3.225538285E0
2.919897904E0,4.304670095E-1,-2.824980021E-1,3.184178114E0,3.225538285E0
2.923837904E0,4.304670095E-1,-2.824980021E-1,3.184178114E0,3.225538285E0
2.927778591E0,4.304670095E-1,-2.824980021E-1,3.184178114E0,3.225538285E0
2.931719437E0,5.111470222E-1,-9.001070261E-1,4.379542828E0,4.500206586E0
2.935660437E0,5.111470222E-1,-9.001070261E-1,4.379542828E0,4.500206586E0
2.939601346E0,5.111470222E-1,-9.001070261E-1,4.379542828E0,4.500206586E0
2.943542577E0,5.111470222E-1,-9.001070261E-1,4.379542828E0,4.500206586E0
2.947483500E0,5.111470222E-1,-9.001070261E-1,4.379542828E0,4.500206586E0
2.951424615E0,-7.985600084E-2,-1.470741987E0,4.424026012E0,4.662774403E0
2.955365846E0,-7.985600084E-2,-1.470741987E0,4.424026012E0,4.662774403E0
2.959306538E0,-7.985600084E-2,-1.470741987E0,4.424026012E0,4.662774403E0
2.963247486E0,-7.985600084E-2,-1.470741987E0,4.424026012E0,4.662774403E0
2.967188640E0,-7.985600084E-2,-1.470741987E0,4.424026012E0,4.662774403E0
2.971128948E0,-7.985600084E-2,-1.470741987E0,4.424026012E0,4.662774403E0
2.975068996E0,-6.689959764E-1,-1.361955047E0,3.124794960E0,3.473732964E0
2.979009073E0,-6.689959764E-1,-1.361955047E0,3.124794960E0,3.473732964E0
2.982949073E0,-6.689959764E-1,-1.361955047E0,3.124794960E0,3.473732964E0
2.986889312E0,-6.689959764E-1,-1.361955047E0,3.124794960E0,3.473732964E0
2.990829697E0,-6.689959764E-1,-1.361955047E0,3.124794960E0,3.473732964E0
2.994770235E0,-7.487630248E-1,-1.251114011E0,7.165179849E-1,1.624601600E0
2.998710587E0,-7.487630248E-1,-1.251114011E0,7.165179849E-1,1.624601600E0
3.002650895E0,-7.487630248E-1,-1.251114011E0,7.165179849E-1,1.624601600E0
3.006591818E0,-7.487630248E-1,-1.251114011E0,7.165179849E-1,1.624601600E0
3.010531822E0,-7.487630248E-1,-1.251114011E0,7.165179849E-1,1.624601600E0
3.014472360E0,-7.803260088E-1,-1.478824973E0,-1.597568035E0,2.312586346E0
3.018412437E0,-7.803260088E-1,-1.478824973E0,-1.597568035E0,2.312586346E0
3.022353360E0,-7.803260088E-1,-1.478824973E0,-1.597568035E0,2.312586346E0
3.026293668E0,-7.803260088E-1,-1.478824973E0,-1.597568035E0,2.312586346E0
3.030234533E0,-8.258290291E-1,-1.550722003E0,-2.344163895E0,2.929477203E0
3.034174918E0,-8.258290291E-1,-1.550722003E0,-2.344163895E0,2.929477203E0
3.038115456E0,-8.258290291E-1,-1.550722003E0,-2.344163895E0,2.929477203E0
3.042055841E0,-8.258290291E-1,-1.550722003E0,-2.344163895E0,2.929477203E0
3.045995207E0,-8.258290291E-1,-1.550722003E0,-2.344163895E0,2.929477203E0
3.049934284E0,-8.258290291E-1,-1.550722003E0,-2.344163895E0,2.929477203E0
3.053874899E0,-4.057109952E-1,-1.598209977E0,-1.960553050E0,2.561765954E0
3.057815731E0,-4.057109952E-1,-1.598209977E0,-1.960553050E0,2.561765954E0
3.061756116E0,-4.057109952E-1,-1.598209977E0,-1.960553050E0,2.561765954E0
3.065696654E0,-4.057109952E-1,-1.598209977E0,-1.960553050E0,2.561765954E0
3.069637029E0,-4.057109952E-1,-1.598209977E0,-1.960553050E0,2.561765954E0
3.073577875E0,6.445199996E-2,-1.689399004E0,-1.999485970E0,2.618428383E0
3.077518183E0,6.445199996E-2,-1.689399004E0,-1.999485970E0,2.618428383E0
3.081458591E0,6.445199996E-2,-1.689399004E0,-1.999485970E0,2.618428383E0
3.085399130E0,6.445199996E-2,-1.689399004E0,-1.999485970E0,2.618428383E0
3.089339130E0,6.445199996E-2,-1.689399004E0,-1.999485970E0,2.618428383E0
3.093279217E0,3.219060004E-1,-1.771317005E0,-1.942698002E0,2.648634164E0
3.097219217E0,3.219060004E-1,-1.771317005E0,-1.942698002E0,2.648634164E0
3.101159832E0,3.219060004E-1,-1.771317005E0,-1.942698002E0,2.648634164E0
3.105100077E0,3.219060004E-1,-1.771317005E0,-1.942698002E0,2.648634164E0
3.109040692E0,3.219060004E-1,-1.771317005E0,-1.942698002E0,2.648634164E0
3.112981077E0,2.873579860E-1,-1.734979033E0,-1.503963947E0,2.314008300E0
3.116921601E0,2.873579860E-1,-1.734979033E0,-1.503963947E0,2.314008300E0
3.120862524E0,2.873579860E-1,-1.734979033E0,-1.503963947E0,2.314008300E0
3.124803140E0,2.873579860E-1,-1.734979033E0,-1.503963947E0,2.314008300E0
3.128743846E0,2.873579860E-1,-1.734979033E0,-1.503963947E0,2.314008300E0
3.132684077E0,1.294800043E-1,-1.731536031E0,-1.676767945E0,2.413821211E0
3.136624692E0,1.294800043E-1,-1.731536031E0,-1.676767945E0,2.413821211E0
3.140565029E0,1.294800043E-1,-1.731536031E0,-1.676767945E0,2.413821211E0
3.144505414E0,1.294800043E-1,-1.731536031E0,-1.676767945E0,2.413821211E0
3.148446568E0,1.294800043E-1,-1.731536031E0,-1.676767945E0,2.413821211E0
3.152387539E0,9.361780286E-1,-1.465201974E0,-1.383221984E0,2.221834643E0
3.156328077E0,9.361780286E-1,-1.465201974E0,-1.383221984E0,2.221834643E0
3.160268462E0,9.361780286E-1,-1.465201974E0,-1.383221984E0,2.221834643E0
3.164209284E0,9.361780286E-1,-1.465201974E0,-1.383221984E0,2.221834643E0
3.168149284E0,9.361780286E-1,-1.465201974E0,-1.383221984E0,2.221834643E0
3.172089592E0,1.843880057E0,-1.059481025E0,-2.931967974E0,3.621992533E0
3.176030274E0,1.843880057E0,-1.059481025E0,-2.931967974E0,3.621992533E0
3.179970582E0,1.843880057E0,-1.059481025E0,-2.931967974E0,3.621992533E0
3.183910812E0,1.843880057E0,-1.059481025E0,-2.931967974E0,3.621992533E0
3.187850812E0,1.843880057E0,-1.059481025E0,-2.931967974E0,3.621992533E0
3.191791197E0,2.207847118E0,4.732400179E-2,-4.792387009E0,5.276722629E0
3.195731505E0,2.207847118E0,4.732400179E-2,-4.792387009E0,5.276722629E0
3.199671539E0,2.207847118E0,4.732400179E-2,-4.792387009E0,5.276722629E0
3.203611539E0,2.207847118E0,4.732400179E-2,-4.792387009E0,5.276722629E0
3.207552077E0,2.207847118E0,4.732400179E-2,-4.792387009E0,5.276722629E0
3.211492995E0,2.207847118E0,4.732400179E-2,-4.792387009E0,5.276722629E0
3.215433380E0,1.227244973E0,1.544134974E0,-4.785997868E0,5.176510275E0
3.219373303E0,1.227244973E0,1.544134974E0,-4.785997868E0,5.176510275E0
3.223313279E0,1.227244973E0,1.544134974E0,-4.785997868E0,5.176510275E0
3.227253894E0,1.227244973E0,1.544134974E0,-4.785997868E0,5.176510275E0
3.231194298E0,4.724470079E-1,1.891181946E0,-2.973280907E0,3.555302333E0
3.235135144E0,4.724470079E-1,1.891181946E0,-2.973280907E0,3.555302333E0
3.239075221E0,4.724470079E-1,1.891181946E0,-2.973280907E0,3.555302333E0
3.243015452E0,4.724470079E-1,1.891181946E0,-2.973280907E0,3.555302333E0
3.246956385E0,4.724470079E-1,1.891181946E0,-2.973280907E0,3.555302333E0
3.250897385E0,4.724470079E-1,1.891181946E0,-2.973280907E0,3.555302333E0
3.254838000E0,7.408090234E-1,1.532400966E0,-1.189120054E0,2.076308559E0
3.258778937E0,7.408090234E-1,1.532400966E0,-1.189120054E0,2.076308559E0
3.262719861E0,7.408090234E-1,1.532400966E0,-1.189120054E0,2.076308559E0
3.266660707E0,7.408090234E-1,1.532400966E0,-1.189120054E0,2.076308559E0
3.270601380E0,7.408090234E-1,1.532400966E0,-1.189120054E0,2.076308559E0
3.274542534E0,1.625283957E0,1.072682977E0,-5.743939877E-1,2.030301741E0
3.278483149E0,1.625283957E0,1.072682977E0,-5.743939877E-1,2.030301741E0
3.282423857E0,1.625283957E0,1.072682977E0,-5.743939877E-1,2.030301741E0
3.286364395E0,1.625283957E0,1.072682977E0,-5.743939877E-1,2.030301741E0
3.290304703E0,1.625283957E0,1.072682977E0,-5.743939877E-1,2.030301741E0
3.294245323E0,2.319678068E0,7.939509749E-1,-9.299299866E-2,2.453550935E0
3.298185939E0,2.319678068E0,7.939509749E-1,-9.299299866E-2,2.453550935E0
3.302126631E0,2.319678068E0,7.939509749E-1,-9.299299866E-2,2.453550935E0
3.306066896E0,2.319678068E0,7.939509749E-1,-9.299299866E-2,2.453550935E0
3.310007280E0,2.319678068E0,7.939509749E-1,-9.299299866E-2,2.453550935E0
3.313947819E0,2.463313103E0,7.007700205E-1,2.526929975E-1,2.573488647E0
3.317888131E0,2.463313103E0,7.007700205E-1,2.526929975E-1,2.573488647E0
3.321828208E0,2.463313103E0,7.007700205E-1,2.526929975E-1,2.573488647E0
3.325768516E0,2.463313103E0,7.007700205E-1,2.526929975E-1,2.573488647E0
3.329708727E0,2.463313103E0,7.007700205E-1,2.526929975E-1,2.573488647E0
3.333649342E0,1.993620038E0,8.092300296E-1,-8.863379955E-1,2.327008625E0
3.337590035E0,1.993620038E0,8.092300296E-1,-8.863379955E-1,2.327008625E0
3.341530342E0,1.993620038E0,8.092300296E-1,-8.863379955E-1,2.327008625E0
3.345471188E0,1.993620038E0,8.092300296E-1,-8.863379955E-1,2.327008625E0
3.349412111E0,1.993620038E0,8.092300296E-1,-8.863379955E-1,2.327008625E0
3.353352164E0,6.004729867E-1,1.223431945E0,-1.069895029E0,1.732636403E0
3.357292164E0,6.004729867E-1,1.223431945E0,-1.069895029E0,1.732636403E0
3.361232472E0,6.004729867E-1,1.223431945E0,-1.069895029E0,1.732636403E0
3.365172713E0,6.004729867E-1,1.223431945E0,-1.069895029E0,1.732636403E0
3.369114251E0,6.004729867E-1,1.223431945E0,-1.069895029E0,1.732636403E0
3.373054328E0,-1.074468017E0,1.448513031E0,-3.778519928E-1,1.842672963E0
3.376994313E0,-1.074468017E0,1.448513031E0,-3.778519928E-1,1.842672963E0
3.380934313E0,-1.074468017E0,1.448513031E0,-3.778519928E-1,1.842672963E0
3.384874852E0,-1.074468017E0,1.448513031E0,-3.778519928E-1,1.842672963E0
3.388814843E0,-1.074468017E0,1.448513031E0,-3.778519928E-1,1.842672963E0
3.392755227E0,-2.121445894E0,1.302201986E0,1.301470041E0,2.808929861E0
3.396695535E0,-2.121445894E0,1.302201986E0,1.301470041E0,2.808929861E0
3.400636064E0,-2.121445894E0,1.302201986E0,1.301470041E0,2.808929861E0
3.404576064E0,-2.121445894E0,1.302201986E0,1.301470041E0,2.808929861E0
3.408516448E0,-2.121445894E0,1.302201986E0,1.301470041E0,2.808929861E0
3.412456761E0,-2.173234940E0,8.112459779E-1,2.847105026E0,3.672475619E0
3.416397299E0,-2.173234940E0,8.112459779E-1,2.847105026E0,3.672475619E0
3.420337376E0,-2.173234940E0,8.112459779E-1,2.847105026E0,3.672475619E0
3.424277664E0,-2.173234940E0,8.112459779E-1,2.847105026E0,3.672475619E0
3.428217972E0,-2.173234940E0,8.112459779E-1,2.847105026E0,3.672475619E0
3.432159203E0,-1.802796960E0,2.707850039E-1,3.964768887E0,4.363804959E0
3.436099424E0,-1.802796960E0,2.707850039E-1,3.964768887E0,4.363804959E0
3.440039809E0,-1.802796960E0,2.707850039E-1,3.964768887E0,4.363804959E0
3.443980424E0,-1.802796960E0,2.707850039E-1,3.964768887E0,4.363804959E0
3.447920429E0,-1.802796960E0,2.707850039E-1,3.964768887E0,4.363804959E0
3.451860660E0,-1.199602008E0,-1.789830029E-1,4.307107925E0,4.474623847E0
3.455799737E0,-1.199602008E0,-1.789830029E-1,4.307107925E0,4.474623847E0
3.459740361E0,-1.199602008E0,-1.789830029E-1,4.307107925E0,4.474623847E0
3.463681054E0,-1.199602008E0,-1.789830029E-1,4.307107925E0,4.474623847E0
3.467621669E0,-1.199602008E0,-1.789830029E-1,4.307107925E0,4.474623847E0
3.471562193E0,-4.871349931E-1,-5.090799928E-1,4.172434807E0,4.231509796E0
3.475502500E0,-4.871349931E-1,-5.090799928E-1,4.172434807E0,4.231509796E0
3.479442885E0,-4.871349931E-1,-5.090799928E-1,4.172434807E0,4.231509796E0
3.483383485E0,-4.871349931E-1,-5.090799928E-1,4.172434807E0,4.231509796E0
3.487324024E0,-4.871349931E-1,-5.090799928E-1,4.172434807E0,4.231509796E0
3.491264408E0,-4.871349931E-1,-5.090799928E-1,4.172434807E0,4.231509796E0
3.495205332E0,7.319500297E-2,-7.840600014E-1,3.073946953E0,3.173209332E0
3.499145562E0,7.319500297E-2,-7.840600014E-1,3.073946953E0,3.173209332E0
3.503086485E0,7.319500297E-2,-7.840600014E-1,3.073946953E0,3.173209332E0
3.507026466E0,7.319500297E-2,-7.840600014E-1,3.073946953E0,3.173209332E0
3.510967082E0,7.319500297E-2,-7.840600014E-1,3.073946953E0,3.173209332E0
3.514907466E0,-1.522780061E-1,-8.433079720E-1,3.061126947E0,3.178813476E0
3.518847457E0,-1.522780061E-1,-8.433079720E-1,3.061126947E0,3.178813476E0
3.522787457E0,-1.522780061E-1,-8.433079720E-1,3.061126947E0,3.178813476E0
3.526727457E0,-1.522780061E-1,-8.433079720E-1,3.061126947E0,3.178813476E0
3.530667376E0,-1.522780061E-1,-8.433079720E-1,3.061126947E0,3.178813476E0
3.534607145E0,-2.598069906E-1,-7.780889869E-1,3.260976076E0,3.362571503E0
3.538547452E0,-2.598069906E-1,-7.780889869E-1,3.260976076E0,3.362571503E0
3.542487485E0,-2.598069906E-1,-7.780889869E-1,3.260976076E0,3.362571503E0
3.546427485E0,-2.598069906E-1,-7.780889869E-1,3.260976076E0,3.362571503E0
3.550367716E0,-2.598069906E-1,-7.780889869E-1,3.260976076E0,3.362571503E0
3.554307688E0,4.616000224E-3,-7.642959952E-1,2.256896973E0,2.382803731E0
3.558247765E0,4.616000224E-3,-7.642959952E-1,2.256896973E0,2.382803731E0
3.562187996E0,4.616000224E-3,-7.642959952E-1,2.256896973E0,2.382803731E0
3.566128101E0,4.616000224E-3,-7.642959952E-1,2.256896973E0,2.382803731E0
3.570068101E0,4.616000224E-3,-7.642959952E-1,2.256896973E0,2.382803731E0
3.574008716E0,3.610000014E-2,-7.387419939E-1,7.172080278E-1,1.030257394E0
3.577949005E0,3.610000014E-2,-7.387419939E-1,7.172080278E-1,1.030257394E0
3.581889313E0,3.610000014E-2,-7.387419939E-1,7.172080278E-1,1.030257394E0
3.585829313E0,3.610000014E-2,-7.387419939E-1,7.172080278E-1,1.030257394E0
3.589769558E0,3.610000014E-2,-7.387419939E-1,7.172080278E-1,1.030257394E0
3.593709865E0,2.850699984E-2,-8.028900027E-1,-4.930499941E-2,8.049074409E-1
3.597650250E0,2.850699984E-2,-8.028900027E-1,-4.930499941E-2,8.049074409E-1
3.601590807E0,2.850699984E-2,-8.028900027E-1,-4.930499941E-2,8.049074409E-1
3.605531115E0,2.850699984E-2,-8.028900027E-1,-4.930499941E-2,8.049074409E-1
3.609471192E0,2.850699984E-2,-8.028900027E-1,-4.930499941E-2,8.049074409E-1
3.613411520E0,-3.906660080E-1,-1.033869028E0,-4.510600120E-2,1.106137265E0
3.617351827E0,-3.906660080E-1,-1.033869028E0,-4.510600120E-2,1.106137265E0
3.621292443E0,-3.906660080E-1,-1.033869028E0,-4.510600120E-2,1.106137265E0
3.625232674E0,-3.906660080E-1,-1.033869028E0,-4.510600120E-2,1.106137265E0
3.629202693E0,-6.413390040E-1,-1.213147044E0,-4.751599953E-2,1.373061994E0
3.633172674E0,-6.413390040E-1,-1.213147044E0,-4.751599953E-2,1.373061994E0
3.637053265E0,-6.413390040E-1,-1.213147044E0,-4.751599953E-2,1.373061994E0
3.640993650E0,-6.413390040E-1,-1.213147044E0,-4.751599953E-2,1.373061994E0
3.644934265E0,-6.413390040E-1,-1.213147044E0,-4.751599953E-2,1.373061994E0
3.648874505E0,-6.413390040E-1,-1.213147044E0,-4.751599953E-2,1.373061994E0
3.652814812E0,-2.335020006E-1,-1.893244982E0,-3.873060048E-1,1.946511158E0
3.656754812E0,-2.335020006E-1,-1.893244982E0,-3.873060048E-1,1.946511158E0
3.660694900E0,-2.335020006E-1,-1.893244982E0,-3.873060048E-1,1.946511158E0
3.664635131E0,-2.335020006E-1,-1.893244982E0,-3.873060048E-1,1.946511158E0
3.668575439E0,-2.335020006E-1,-1.893244982E0,-3.873060048E-1,1.946511158E0
3.672516049E0,4.419089854E-1,-2.133236885E0,-1.284358978E0,2.528944670E0
3.676456357E0,4.419089854E-1,-2.133236885E0,-1.284358978E0,2.528944670E0
3.680396434E0,4.419089854E-1,-2.133236885E0,-1.284358978E0,2.528944670E0
3.684336723E0,4.419089854E-1,-2.133236885E0,-1.284358978E0,2.528944670E0
3.688276723E0,4.419089854E-1,-2.133236885E0,-1.284358978E0,2.528944670E0
3.692217261E0,4.051429927E-1,-1.948259950E0,-3.274947882E0,3.832119688E0
3.696157568E0,4.051429927E-1,-1.948259950E0,-3.274947882E0,3.832119688E0
3.700097952E0,4.051429927E-1,-1.948259950E0,-3.274947882E0,3.832119688E0
3.704038491E0,4.051429927E-1,-1.948259950E0,-3.274947882E0,3.832119688E0
3.707978799E0,4.051429927E-1,-1.948259950E0,-3.274947882E0,3.832119688E0
3.711919183E0,-3.449630141E-1,-1.436099052E0,-4.204189777E0,4.456073569E0
3.715860029E0,-3.449630141E-1,-1.436099052E0,-4.204189777E0,4.456073569E0
3.719801342E0,-3.449630141E-1,-1.436099052E0,-4.204189777E0,4.456073569E0
3.723741573E0,-3.449630141E-1,-1.436099052E0,-4.204189777E0,4.456073569E0
3.727681957E0,-3.449630141E-1,-1.436099052E0,-4.204189777E0,4.456073569E0
3.731621957E0,-1.458518982E0,-1.378720999E0,-3.965764999E0,4.444709354E0
3.735562188E0,-1.458518982E0,-1.378720999E0,-3.965764999E0,4.444709354E0
3.739502881E0,-1.458518982E0,-1.378720999E0,-3.965764999E0,4.444709354E0
3.743442852E0,-1.458518982E0,-1.378720999E0,-3.965764999E0,4.444709354E0
3.747382621E0,-1.458518982E0,-1.378720999E0,-3.965764999E0,4.444709354E0
3.751322544E0,-2.092259884E0,-1.957667947E0,-2.986270905E0,4.138578153E0
3.755262838E0,-2.092259884E0,-1.957667947E0,-2.986270905E0,4.138578153E0
3.759203530E0,-2.092259884E0,-1.957667947E0,-2.986270905E0,4.138578153E0
3.763144376E0,-2.092259884E0,-1.957667947E0,-2.986270905E0,4.138578153E0
3.767085006E0,-2.092259884E0,-1.957667947E0,-2.986270905E0,4.138578153E0
3.771025390E0,-2.092259884E0,-1.957667947E0,-2.986270905E0,4.138578153E0
3.774965929E0,-1.762297988E0,-2.104626894E0,-1.555094957E0,3.154911867E0
3.778905910E0,-1.762297988E0,-2.104626894E0,-1.555094957E0,3.154911867E0
3.782845910E0,-1.762297988E0,-2.104626894E0,-1.555094957E0,3.154911867E0
3.786786217E0,-1.762297988E0,-2.104626894E0,-1.555094957E0,3.154911867E0
3.790726583E0,-1.762297988E0,-2.104626894E0,-1.555094957E0,3.154911867E0
3.794665275E0,-9.122049809E-1,-1.670171976E0,-1.947110057E0,2.722651269E0
3.798605352E0,-9.122049809E-1,-1.670171976E0,-1.947110057E0,2.722651269E0
3.802545313E0,-9.122049809E-1,-1.670171976E0,-1.947110057E0,2.722651269E0
3.806486159E0,-9.122049809E-1,-1.670171976E0,-1.947110057E0,2.722651269E0
3.810428006E0,-9.122049809E-1,-1.670171976E0,-1.947110057E0,2.722651269E0
3.814368093E0,-7.564520240E-1,-6.996909976E-1,-3.220308065E0,3.381149389E0
3.818308323E0,-7.564520240E-1,-6.996909976E-1,-3.220308065E0,3.381149389E0
3.822249016E0,-7.564520240E-1,-6.996909976E-1,-3.220308065E0,3.381149389E0
3.826189231E0,-7.564520240E-1,-6.996909976E-1,-3.220308065E0,3.381149389E0
3.830129231E0,-1.345792055E0,5.651099980E-2,-3.753066063E0,3.987462178E0
3.834069616E0,-1.345792055E0,5.651099980E-2,-3.753066063E0,3.987462178E0
3.838010146E0,-1.345792055E0,5.651099980E-2,-3.753066063E0,3.987462178E0
3.841950453E0,-1.345792055E0,5.651099980E-2,-3.753066063E0,3.987462178E0
3.845891069E0,-1.345792055E0,5.651099980E-2,-3.753066063E0,3.987462178E0
3.849831346E0,-1.345792055E0,5.651099980E-2,-3.753066063E0,3.987462178E0
3.853772039E0,-2.543175936E0,6.820340157E-1,-1.789332986E0,3.183492857E0
3.857712577E0,-2.543175936E0,6.820340157E-1,-1.789332986E0,3.183492857E0
3.861652909E0,-2.543175936E0,6.820340157E-1,-1.789332986E0,3.183492857E0
3.865593601E0,-2.543175936E0,6.820340157E-1,-1.789332986E0,3.183492857E0
3.869534217E0,-2.543175936E0,6.820340157E-1,-1.789332986E0,3.183492857E0
3.873474452E0,-2.619020939E0,8.411319852E-1,1.349889934E-1,2.754087094E0
3.877415145E0,-2.619020939E0,8.411319852E-1,1.349889934E-1,2.754087094E0
3.881356068E0,-2.619020939E0,8.411319852E-1,1.349889934E-1,2.754087094E0
3.885296914E0,-2.619020939E0,8.411319852E-1,1.349889934E-1,2.754087094E0
3.889237529E0,-2.619020939E0,8.411319852E-1,1.349889934E-1,2.754087094E0
3.893178145E0,-1.449203014E0,7.070159912E-1,5.643950105E-1,1.708391851E0
3.897118241E0,-1.449203014E0,7.070159912E-1,5.643950105E-1,1.708391851E0
3.901058164E0,-1.449203014E0,7.070159912E-1,5.643950105E-1,1.708391851E0
3.904997625E0,-1.449203014E0,7.070159912E-1,5.643950105E-1,1.708391851E0
3.908937625E0,-1.449203014E0,7.070159912E-1,5.643950105E-1,1.708391851E0
3.912878164E0,1.340740025E-1,5.219640136E-1,-2.274470031E-1,5.849396626E-1
3.916818779E0,1.340740025E-1,5.219640136E-1,-2.274470031E-1,5.849396626E-1
3.920758837E0,1.340740025E-1,5.219640136E-1,-2.274470031E-1,5.849396626E-1
3.924699068E0,1.340740025E-1,5.219640136E-1,-2.274470031E-1,5.849396626E-1
3.928639145E0,1.340740025E-1,5.219640136E-1,-2.274470031E-1,5.849396626E-1
3.932579418E0,9.003580213E-1,1.073969960E0,-1.436156034E0,2.006639030E0
3.936519957E0,9.003580213E-1,1.073969960E0,-1.436156034E0,2.006639030E0
3.940460342E0,9.003580213E-1,1.073969960E0,-1.436156034E0,2.006639030E0
3.944400654E0,9.003580213E-1,1.073969960E0,-1.436156034E0,2.006639030E0
3.948341193E0,9.003580213E-1,1.073969960E0,-1.436156034E0,2.006639030E0
3.952281885E0,8.024770021E-1,1.478700995E0,-1.741170049E0,2.421197867E0
3.956222183E0,8.024770021E-1,1.478700995E0,-1.741170049E0,2.421197867E0
3.960163029E0,8.024770021E-1,1.478700995E0,-1.741170049E0,2.421197867E0
3.964103952E0,8.024770021E-1,1.478700995E0,-1.741170049E0,2.421197867E0
3.968044933E0,8.024770021E-1,1.478700995E0,-1.741170049E0,2.421197867E0
3.971985548E0,1.484249979E-1,1.615792990E0,-7.213240266E-1,1.775704175E0
3.975926395E0,1.484249979E-1,1.615792990E0,-7.213240266E-1,1.775704175E0
3.979868635E0,1.484249979E-1,1.615792990E0,-7.213240266E-1,1.775704175E0
3.983809174E0,1.484249979E-1,1.615792990E0,-7.213240266E-1,1.775704175E0
3.987749558E0,1.484249979E-1,1.615792990E0,-7.213240266E-1,1.775704175E0
3.991690135E0,-3.144150078E-1,1.336994052E0,1.091483951E0,1.754350907E0
3.995630443E0,-3.144150078E-1,1.336994052E0,1.091483951E0,1.754350907E0
3.999570212E0,-3.144150078E-1,1.336994052E0,1.091483951E0,1.754350907E0
4.003510798E0,-3.144150078E-1,1.336994052E0,1.091483951E0,1.754350907E0
4.007451106E0,-3.144150078E-1,1.336994052E0,1.091483951E0,1.754350907E0
4.011391644E0,-2.821309865E-1,8.374260068E-1,3.014081955E0,3.140950532E0
4.015331736E0,-2.821309865E-1,8.374260068E-1,3.014081955E0,3.140950532E0
4.019271429E0,-2.821309865E-1,8.374260068E-1,3.014081955E0,3.140950532E0
4.023210198E0,-2.821309865E-1,8.374260068E-1,3.014081955E0,3.140950532E0
4.027150202E0,-2.821309865E-1,8.374260068E-1,3.014081955E0,3.140950532E0
4.031090125E0,3.413800150E-2,4.932770133E-1,4.252482891E0,4.281132835E0
4.035030202E0,3.413800150E-2,4.932770133E-1,4.252482891E0,4.281132835E0
4.038970832E0,3.413800150E-2,4.932770133E-1,4.252482891E0,4.281132835E0
4.042911448E0,3.413800150E-2,4.932770133E-1,4.252482891E0,4.281132835E0
4.046851986E0,3.413800150E-2,4.932770133E-1,4.252482891E0,4.281132835E0
4.050792053E0,3.413800150E-2,4.932770133E-1,4.252482891E0,4.281132835E0
4.054732361E0,3.491370082E-1,1.402049959E-1,4.174520969E0,4.191441210E0
4.058672668E0,3.491370082E-1,1.402049959E-1,4.174520969E0,4.191441210E0
4.062612899E0,3.491370082E-1,1.402049959E-1,4.174520969E0,4.191441210E0
4.066553284E0,3.491370082E-1,1.402049959E-1,4.174520969E0,4.191441210E0
4.070493515E0,3.491370082E-1,1.402049959E-1,4.174520969E0,4.191441210E0
4.074434125E0,2.627469897E-1,2.194039971E-1,3.581861019E0,3.598180437E0
4.078374510E0,2.627469897E-1,2.194039971E-1,3.581861019E0,3.598180437E0
4.082315048E0,2.627469897E-1,2.194039971E-1,3.581861019E0,3.598180437E0
4.086255034E0,2.627469897E-1,2.194039971E-1,3.581861019E0,3.598180437E0
4.090194803E0,2.627469897E-1,2.194039971E-1,3.581861019E0,3.598180437E0
4.094135111E0,8.895800263E-2,3.049069941E-1,3.157819986E0,3.173753120E0
4.098075419E0,8.895800263E-2,3.049069941E-1,3.157819986E0,3.173753120E0
4.102015957E0,8.895800263E-2,3.049069941E-1,3.157819986E0,3.173753120E0
4.105956650E0,8.895800263E-2,3.049069941E-1,3.157819986E0,3.173753120E0
4.109897510E0,8.895800263E-2,3.049069941E-1,3.157819986E0,3.173753120E0
4.113837587E0,3.767809868E-1,8.668000251E-2,3.097668886E0,3.121703039E0
4.117778202E0,3.767809868E-1,8.668000251E-2,3.097668886E0,3.121703039E0
4.121718746E0,3.767809868E-1,8.668000251E-2,3.097668886E0,3.121703039E0
4.125658515E0,3.767809868E-1,8.668000251E-2,3.097668886E0,3.121703039E0
4.129599053E0,3.767809868E-1,8.668000251E-2,3.097668886E0,3.121703039E0
4.133539443E0,5.104900002E-1,-3.284640014E-1,2.625624895E0,2.694883064E0
4.137479443E0,5.104900002E-1,-3.284640014E-1,2.625624895E0,2.694883064E0
4.141420289E0,5.104900002E-1,-3.284640014E-1,2.625624895E0,2.694883064E0
4.145360606E0,5.104900002E-1,-3.284640014E-1,2.625624895E0,2.694883064E0
4.149300913E0,5.104900002E-1,-3.284640014E-1,2.625624895E0,2.694883064E0
4.153241298E0,8.437690139E-1,-8.189989924E-1,1.728474975E0,2.090533720E0
4.157181952E0,8.437690139E-1,-8.189989924E-1,1.728474975E0,2.090533720E0
4.161122799E0,8.437690139E-1,-8.189989924E-1,1.728474975E0,2.090533720E0
4.165063106E0,8.437690139E-1,-8.189989924E-1,1.728474975E0,2.090533720E0
4.169003428E0,8.437690139E-1,-8.189989924E-1,1.728474975E0,2.090533720E0
4.172943813E0,5.084940195E-1,-1.299518943E0,5.132870078E-1,1.486868926E0
4.176884428E0,5.084940195E-1,-1.299518943E0,5.132870078E-1,1.486868926E0
4.180824962E0,5.084940195E-1,-1.299518943E0,5.132870078E-1,1.486868926E0
4.184765269E0,5.084940195E-1,-1.299518943E0,5.132870078E-1,1.486868926E0
4.188705962E0,5.084940195E-1,-1.299518943E0,5.132870078E-1,1.486868926E0
4.192648058E0,-1.102589965E-1,-1.236214042E0,-3.468379974E-1,1.288673271E0
4.196588673E0,-1.102589965E-1,-1.236214042E0,-3.468379974E-1,1.288673271E0
4.200529288E0,-1.102589965E-1,-1.236214042E0,-3.468379974E-1,1.288673271E0
4.204470202E0,-1.102589965E-1,-1.236214042E0,-3.468379974E-1,1.288673271E0
4.208411125E0,-1.102589965E-1,-1.236214042E0,-3.468379974E-1,1.288673271E0
4.212351818E0,-4.519720078E-1,-1.360595942E0,-2.280170023E-1,1.451720278E0
4.216292678E0,-4.519720078E-1,-1.360595942E0,-2.280170023E-1,1.451720278E0
4.220232678E0,-4.519720078E-1,-1.360595942E0,-2.280170023E-1,1.451720278E0
4.224174216E0,-4.519720078E-1,-1.360595942E0,-2.280170023E-1,1.451720278E0
4.228115433E0,-4.519720078E-1,-1.360595942E0,-2.280170023E-1,1.451720278E0
4.232056049E0,4.406419992E-1,-1.971171975E0,1.122869998E-1,2.022941595E0
4.235996126E0,4.406419992E-1,-1.971171975E0,1.122869998E-1,2.022941595E0
4.239936741E0,4.406419992E-1,-1.971171975E0,1.122869998E-1,2.022941595E0
4.243877293E0,4.406419992E-1,-1.971171975E0,1.122869998E-1,2.022941595E0
4.247817986E0,4.406419992E-1,-1.971171975E0,1.122869998E-1,2.022941595E0
4.251758832E0,1.588513970E0,-2.615854025E0,-5.195230246E-1,3.104186381E0
4.255699145E0,1.588513970E0,-2.615854025E0,-5.195230246E-1,3.104186381E0
4.259639529E0,1.588513970E0,-2.615854025E0,-5.195230246E-1,3.104186381E0
4.263580375E0,1.588513970E0,-2.615854025E0,-5.195230246E-1,3.104186381E0
4.267520765E0,1.588513970E0,-2.615854025E0,-5.195230246E-1,3.104186381E0
4.271460765E0,1.418202996E0,-2.630029917E0,-1.175492048E0,3.210940463E0
4.275401073E0,1.418202996E0,-2.630029917E0,-1.175492048E0,3.210940463E0
4.279341380E0,1.418202996E0,-2.630029917E0,-1.175492048E0,3.210940463E0
4.283282227E0,1.418202996E0,-2.630029917E0,-1.175492048E0,3.210940463E0
4.287223150E0,1.418202996E0,-2.630029917E0,-1.175492048E0,3.210940463E0
4.291163847E0,4.221090078E-1,-1.896661997E0,-1.007894993E0,2.188916413E0
4.295104693E0,4.221090078E-1,-1.896661997E0,-1.007894993E0,2.188916413E0
4.299046001E0,4.221090078E-1,-1.896661997E0,-1.007894993E0,2.188916413E0
4.302987755E0,4.221090078E-1,-1.896661997E0,-1.007894993E0,2.188916413E0
4.306930217E0,4.221090078E-1,-1.896661997E0,-1.007894993E0,2.188916413E0
4.310870909E0,4.221090078E-1,-1.896661997E0,-1.007894993E0,2.188916413E0
4.314812365E0,-6.707720160E-1,-1.423563004E0,-1.745877981E0,2.350437544E0
4.318753058E0,-6.707720160E-1,-1.423563004E0,-1.745877981E0,2.350437544E0
4.322694212E0,-6.707720160E-1,-1.423563004E0,-1.745877981E0,2.350437544E0
4.326634899E0,-6.707720160E-1,-1.423563004E0,-1.745877981E0,2.350437544E0
4.330576130E0,-6.707720160E-1,-1.423563004E0,-1.745877981E0,2.350437544E0
4.334517361E0,-7.064970136E-1,-1.817288995E0,-1.853333950E0,2.690078819E0
4.338458207E0,-7.064970136E-1,-1.817288995E0,-1.853333950E0,2.690078819E0
4.342399745E0,-7.064970136E-1,-1.817288995E0,-1.853333950E0,2.690078819E0
4.346340976E0,-7.064970136E-1,-1.817288995E0,-1.853333950E0,2.690078819E0
4.350280342E0,-7.064970136E-1,-1.817288995E0,-1.853333950E0,2.690078819E0
4.354220342E0,-3.008219898E-1,-1.388152003E0,-1.153321028E0,1.829647301E0
4.358160419E0,-3.008219898E-1,-1.388152003E0,-1.153321028E0,1.829647301E0
4.362101318E0,-3.008219898E-1,-1.388152003E0,-1.153321028E0,1.829647301E0
4.366042779E0,-3.008219898E-1,-1.388152003E0,-1.153321028E0,1.829647301E0
4.369983395E0,-3.008219898E-1,-1.388152003E0,-1.153321028E0,1.829647301E0
4.373923683E0,1.044482946E0,-8.326079845E-1,-1.183647990E0,1.784713771E0
4.377863760E0,1.044482946E0,-8.326079845E-1,-1.183647990E0,1.784713771E0
4.381804068E0,1.044482946E0,-8.326079845E-1,-1.183647990E0,1.784713771E0
4.385744313E0,1.044482946E0,-8.326079845E-1,-1.183647990E0,1.784713771E0
4.389684697E0,1.044482946E0,-8.326079845E-1,-1.183647990E0,1.784713771E0
4.393625620E0,2.611660004E0,-5.509880185E-1,-3.357502937E0,4.289193601E0
4.397565938E0,2.611660004E0,-5.509880185E-1,-3.357502937E0,4.289193601E0
4.401506246E0,2.611660004E0,-5.509880185E-1,-3.357502937E0,4.289193601E0
4.405446553E0,2.611660004E0,-5.509880185E-1,-3.357502937E0,4.289193601E0
4.409386524E0,2.663078070E0,-1.147520021E-1,-4.306225777E0,5.064457845E0
4.413326832E0,2.663078070E0,-1.147520021E-1,-4.306225777E0,5.064457845E0
4.417267063E0,2.663078070E0,-1.147520021E-1,-4.306225777E0,5.064457845E0
4.421207483E0,2.663078070E0,-1.147520021E-1,-4.306225777E0,5.064457845E0
4.425148329E0,2.663078070E0,-1.147520021E-1,-4.306225777E0,5.064457845E0
4.429118659E0,1.670801997E0,5.665220022E-1,-3.667192936E0,4.069500033E0
4.433088988E0,1.670801997E0,5.665220022E-1,-3.667192936E0,4.069500033E0
4.436970833E0,1.670801997E0,5.665220022E-1,-3.667192936E0,4.069500033E0
4.440911372E0,1.670801997E0,5.665220022E-1,-3.667192936E0,4.069500033E0
4.444852054E0,1.670801997E0,5.665220022E-1,-3.667192936E0,4.069500033E0
4.448792592E0,1.670801997E0,5.665220022E-1,-3.667192936E0,4.069500033E0
4.452732669E0,1.592285037E0,1.024744987E0,-1.935760021E0,2.707884929E0
4.456672669E0,1.592285037E0,1.024744987E0,-1.935760021E0,2.707884929E0
4.460613516E0,1.592285037E0,1.024744987E0,-1.935760021E0,2.707884929E0
4.464553823E0,1.592285037E0,1.024744987E0,-1.935760021E0,2.707884929E0
4.468494227E0,1.592285037E0,1.024744987E0,-1.935760021E0,2.707884929E0
4.472434458E0,2.606213093E0,1.049733996E0,-1.124639988E0,3.026401039E0
4.476374535E0,2.606213093E0,1.049733996E0,-1.124639988E0,3.026401039E0
4.480314526E0,2.606213093E0,1.049733996E0,-1.124639988E0,3.026401039E0
4.484255064E0,2.606213093E0,1.049733996E0,-1.124639988E0,3.026401039E0
4.488195680E0,2.606213093E0,1.049733996E0,-1.124639988E0,3.026401039E0
4.492135770E0,2.422424078E0,8.799290061E-1,-1.380085945E0,2.923533938E0
4.496077001E0,2.422424078E0,8.799290061E-1,-1.380085945E0,2.923533938E0
4.500017001E0,2.422424078E0,8.799290061E-1,-1.380085945E0,2.923533938E0
4.503957574E0,2.422424078E0,8.799290061E-1,-1.380085945E0,2.923533938E0
4.507897881E0,2.422424078E0,8.799290061E-1,-1.380085945E0,2.923533938E0
4.511838497E0,1.892233968E0,9.660099745E-1,-1.558927059E0,2.635142925E0
4.515778800E0,1.892233968E0,9.660099745E-1,-1.558927059E0,2.635142925E0
4.519719107E0,1.892233968E0,9.660099745E-1,-1.558927059E0,2.635142925E0
4.523660030E0,1.892233968E0,9.660099745E-1,-1.558927059E0,2.635142925E0
4.527600631E0,1.892233968E0,9.660099745E-1,-1.558927059E0,2.635142925E0
4.531541554E0,1.524620056E0,7.731019855E-1,-1.517258048E0,2.285656356E0
4.535482477E0,1.524620056E0,7.731019855E-1,-1.517258048E0,2.285656356E0
4.539423415E0,1.524620056E0,7.731019855E-1,-1.517258048E0,2.285656356E0
4.543364107E0,1.524620056E0,7.731019855E-1,-1.517258048E0,2.285656356E0
4.547305030E0,1.524620056E0,7.731019855E-1,-1.517258048E0,2.285656356E0
4.551245569E0,1.524620056E0,7.731019855E-1,-1.517258048E0,2.285656356E0
4.555186261E0,9.219599962E-1,6.175320148E-1,-4.671980143E-1,1.204005817E0
4.559127415E0,9.219599962E-1,6.175320148E-1,-4.671980143E-1,1.204005817E0
4.563068347E0,9.219599962E-1,6.175320148E-1,-4.671980143E-1,1.204005817E0
4.567008962E0,9.219599962E-1,6.175320148E-1,-4.671980143E-1,1.204005817E0
4.570949578E0,4.453909993E-1,5.795609951E-1,5.561869740E-1,9.184813767E-1
4.574889948E0,4.453909993E-1,5.795609951E-1,5.561869740E-1,9.184813767E-1
4.578831179E0,4.453909993E-1,5.795609951E-1,5.561869740E-1,9.184813767E-1
4.582772025E0,4.453909993E-1,5.795609951E-1,5.561869740E-1,9.184813767E-1
4.586713025E0,4.453909993E-1,5.795609951E-1,5.561869740E-1,9.184813767E-1
4.590654179E0,4.453909993E-1,5.795609951E-1,5.561869740E-1,9.184813767E-1
4.594594872E0,-2.867560089E-1,7.272179723E-1,2.097268105E0,2.238215470E0
4.598536015E0,-2.867560089E-1,7.272179723E-1,2.097268105E0,2.238215470E0
4.602476631E0,-2.867560089E-1,7.272179723E-1,2.097268105E0,2.238215470E0
4.606416708E0,-2.867560089E-1,7.272179723E-1,2.097268105E0,2.238215470E0
4.610357534E0,-2.867560089E-1,7.272179723E-1,2.097268105E0,2.238215470E0
4.614297842E0,-8.180890083E-1,7.963309884E-1,3.118186951E0,3.320617793E0
4.618238226E0,-8.180890083E-1,7.963309884E-1,3.118186951E0,3.320617793E0
4.622178770E0,-8.180890083E-1,7.963309884E-1,3.118186951E0,3.320617793E0
4.626119693E0,-8.180890083E-1,7.963309884E-1,3.118186951E0,3.320617793E0
4.630060082E0,-1.175547957E0,8.239489794E-1,3.792867899E0,4.055447179E0
4.634000621E0,-1.175547957E0,8.239489794E-1,3.792867899E0,4.055447179E0
4.637942775E0,-1.175547957E0,8.239489794E-1,3.792867899E0,4.055447179E0
4.641883159E0,-1.175547957E0,8.239489794E-1,3.792867899E0,4.055447179E0
4.645823385E0,-1.175547957E0,8.239489794E-1,3.792867899E0,4.055447179E0
4.649763385E0,-1.175547957E0,8.239489794E-1,3.792867899E0,4.055447179E0
4.653703462E0,-1.629124045E0,7.505530119E-1,4.281442165E0,4.641995475E0
4.657643702E0,-1.629124045E0,7.505530119E-1,4.281442165E0,4.641995475E0
4.661584317E0,-1.629124045E0,7.505530119E-1,4.281442165E0,4.641995475E0
4.665524317E0,-1.629124045E0,7.505530119E-1,4.281442165E0,4.641995475E0
4.669464635E0,-1.629124045E0,7.505530119E-1,4.281442165E0,4.641995475E0
4.673404943E0,-1.655593991E0,5.130910277E-1,4.104277134E0,4.455260336E0
4.677345327E0,-1.655593991E0,5.130910277E-1,4.104277134E0,4.455260336E0
4.681285948E0,-1.655593991E0,5.130910277E-1,4.104277134E0,4.455260336E0
4.685226255E0,-1.655593991E0,5.130910277E-1,4.104277134E0,4.455260336E0
4.689166794E0,-1.655593991E0,5.130910277E-1,4.104277134E0,4.455260336E0
4.693107131E0,-1.446818948E0,2.063850015E-1,3.901885033E0,4.166603730E0
4.697047054E0,-1.446818948E0,2.063850015E-1,3.901885033E0,4.166603730E0
4.700985592E0,-1.446818948E0,2.063850015E-1,3.901885033E0,4.166603730E0
4.704926131E0,-1.446818948E0,2.063850015E-1,3.901885033E0,4.166603730E0
4.708866746E0,-1.446818948E0,2.063850015E-1,3.901885033E0,4.166603730E0
4.712807054E0,-1.063640952E0,-7.568000257E-2,3.457828045E0,3.618512723E0
4.716747030E0,-1.063640952E0,-7.568000257E-2,3.457828045E0,3.618512723E0
4.720687107E0,-1.063640952E0,-7.568000257E-2,3.457828045E0,3.618512723E0
4.724627414E0,-1.063640952E0,-7.568000257E-2,3.457828045E0,3.618512723E0
4.728567721E0,-1.063640952E0,-7.568000257E-2,3.457828045E0,3.618512723E0
4.732508259E0,-1.121760011E-1,-7.202069759E-1,2.609428883E0,2.709317375E0
4.736448644E0,-1.121760011E-1,-7.202069759E-1,2.609428883E0,2.709317375E0
4.740388669E0,-1.121760011E-1,-7.202069759E-1,2.609428883E0,2.709317375E0
4.744329285E0,-1.121760011E-1,-7.202069759E-1,2.609428883E0,2.709317375E0
4.748269285E0,-1.121760011E-1,-7.202069759E-1,2.609428883E0,2.709317375E0
4.752210203E0,3.769020140E-1,-1.037184954E0,1.384809971E0,1.770736121E0
4.756150510E0,3.769020140E-1,-1.037184954E0,1.384809971E0,1.770736121E0
4.760090818E0,3.769020140E-1,-1.037184954E0,1.384809971E0,1.770736121E0
4.764030818E0,3.769020140E-1,-1.037184954E0,1.384809971E0,1.770736121E0
4.767971356E0,3.769020140E-1,-1.037184954E0,1.384809971E0,1.770736121E0
4.771912049E0,-4.655640125E-1,-3.761410117E-1,7.799019814E-1,9.830966438E-1
4.775852664E0,-4.655640125E-1,-3.761410117E-1,7.799019814E-1,9.830966438E-1
4.779793280E0,-4.655640125E-1,-3.761410117E-1,7.799019814E-1,9.830966438E-1
4.783733510E0,-4.655640125E-1,-3.761410117E-1,7.799019814E-1,9.830966438E-1
4.787673842E0,-4.655640125E-1,-3.761410117E-1,7.799019814E-1,9.830966438E-1
4.791613919E0,-7.831460238E-1,-2.858999968E-1,2.010229975E-1,8.575935798E-1
4.795554150E0,-7.831460238E-1,-2.858999968E-1,2.010229975E-1,8.575935798E-1
4.799494165E0,-7.831460238E-1,-2.858999968E-1,2.010229975E-1,8.575935798E-1
4.803434242E0,-7.831460238E-1,-2.858999968E-1,2.010229975E-1,8.575935798E-1
4.807374549E0,-7.831460238E-1,-2.858999968E-1,2.010229975E-1,8.575935798E-1
4.811315098E0,-3.990989923E-1,-8.641350269E-1,-3.097679913E-1,1.000982297E0
4.815255483E0,-3.990989923E-1,-8.641350269E-1,-3.097679913E-1,1.000982297E0
4.819196098E0,-3.990989923E-1,-8.641350269E-1,-3.097679913E-1,1.000982297E0
4.823136324E0,-3.990989923E-1,-8.641350269E-1,-3.097679913E-1,1.000982297E0
4.827076708E0,-3.990989923E-1,-8.641350269E-1,-3.097679913E-1,1.000982297E0
4.831016939E0,-2.299019992E-1,-1.439363003E0,-2.650960088E-1,1.481518369E0
4.834956708E0,-2.299019992E-1,-1.439363003E0,-2.650960088E-1,1.481518369E0
4.838897016E0,-2.299019992E-1,-1.439363003E0,-2.650960088E-1,1.481518369E0
4.842837555E0,-2.299019992E-1,-1.439363003E0,-2.650960088E-1,1.481518369E0
4.846777924E0,-2.299019992E-1,-1.439363003E0,-2.650960088E-1,1.481518369E0
4.850717924E0,-7.649300247E-2,-1.572996974E0,1.010679975E-1,1.578095498E0
4.854658463E0,-7.649300247E-2,-1.572996974E0,1.010679975E-1,1.578095498E0
4.858598828E0,-7.649300247E-2,-1.572996974E0,1.010679975E-1,1.578095498E0
4.862539136E0,-7.649300247E-2,-1.572996974E0,1.010679975E-1,1.578095498E0
4.866478828E0,-7.649300247E-2,-1.572996974E0,1.010679975E-1,1.578095498E0
4.870419352E0,-7.649300247E-2,-1.572996974E0,1.010679975E-1,1.578095498E0
4.874359429E0,1.344399992E-2,-1.322685957E0,-1.067402005E0,1.699713482E0
4.878298736E0,1.344399992E-2,-1.322685957E0,-1.067402005E0,1.699713482E0
4.882238847E0,1.344399992E-2,-1.322685957E0,-1.067402005E0,1.699713482E0
4.886178770E0,1.344399992E-2,-1.322685957E0,-1.067402005E0,1.699713482E0
4.890119078E0,1.344399992E-2,-1.322685957E0,-1.067402005E0,1.699713482E0
4.894060924E0,-7.844129801E-1,-1.124750972E0,-2.970215082E0,3.271474607E0
4.898001847E0,-7.844129801E-1,-1.124750972E0,-2.970215082E0,3.271474607E0
4.901941847E0,-7.844129801E-1,-1.124750972E0,-2.970215082E0,3.271474607E0
4.905881665E0,-7.844129801E-1,-1.124750972E0,-2.970215082E0,3.271474607E0
4.909821895E0,-7.844129801E-1,-1.124750972E0,-2.970215082E0,3.271474607E0
4.913761895E0,-1.997643948E0,-9.479079843E-1,-3.034185886E0,3.754383422E0
4.917701651E0,-1.997643948E0,-9.479079843E-1,-3.034185886E0,3.754383422E0
4.921641574E0,-1.997643948E0,-9.479079843E-1,-3.034185886E0,3.754383422E0
4.925581651E0,-1.997643948E0,-9.479079843E-1,-3.034185886E0,3.754383422E0
4.929521333E0,-1.997643948E0,-9.479079843E-1,-3.034185886E0,3.754383422E0
4.933461564E0,-1.979056954E0,-9.359629750E-1,-2.202833891E0,3.105667444E0
4.937401641E0,-1.979056954E0,-9.359629750E-1,-2.202833891E0,3.105667444E0
4.941341660E0,-1.979056954E0,-9.359629750E-1,-2.202833891E0,3.105667444E0
4.945282506E0,-1.979056954E0,-9.359629750E-1,-2.202833891E0,3.105667444E0
4.949222583E0,-1.979056954E0,-9.359629750E-1,-2.202833891E0,3.105667444E0
4.953162829E0,-1.142377019E0,-1.411481977E0,-2.290815115E0,2.923207231E0
4.957101367E0,-1.142377019E0,-1.411481977E0,-2.290815115E0,2.923207231E0
4.961041675E0,-1.142377019E0,-1.411481977E0,-2.290815115E0,2.923207231E0
4.964982904E0,-1.142377019E0,-1.411481977E0,-2.290815115E0,2.923207231E0
4.968923751E0,-1.142377019E0,-1.411481977E0,-2.290815115E0,2.923207231E0
4.972864058E0,-9.535740018E-1,-9.229320288E-1,-3.566262960E0,3.805172586E0
4.976804371E0,-9.535740018E-1,-9.229320288E-1,-3.566262960E0,3.805172586E0
4.980743833E0,-9.535740018E-1,-9.229320288E-1,-3.566262960E0,3.805172586E0
4.984684063E0,-9.535740018E-1,-9.229320288E-1,-3.566262960E0,3.805172586E0
4.988624669E0,-9.535740018E-1,-9.229320288E-1,-3.566262960E0,3.805172586E0
4.992564976E0,-2.111016989E0,-2.223740071E-1,-4.773726940E0,5.224395833E0
4.996505361E0,-2.111016989E0,-2.223740071E-1,-4.773726940E0,5.224395833E0
5.000445890E0,-2.111016989E0,-2.223740071E-1,-4.773726940E0,5.224395833E0
5.004386197E0,-2.111016989E0,-2.223740071E-1,-4.773726940E0,5.224395833E0
5.008326582E0,-2.111016989E0,-2.223740071E-1,-4.773726940E0,5.224395833E0
5.012267438E0,-2.739197969E0,-3.711000085E-2,-4.121501923E0,4.948874697E0
5.016208130E0,-2.739197969E0,-3.711000085E-2,-4.121501923E0,4.948874697E0
5.020148361E0,-2.739197969E0,-3.711000085E-2,-4.121501923E0,4.948874697E0
5.024088683E0,-2.739197969E0,-3.711000085E-2,-4.121501923E0,4.948874697E0
5.028028991E0,-2.739197969E0,-3.711000085E-2,-4.121501923E0,4.948874697E0
5.031969914E0,-2.372982979E0,1.326210052E-1,-2.311296940E0,3.315227005E0
5.035910592E0,-2.372982979E0,1.326210052E-1,-2.311296940E0,3.315227005E0
5.039851130E0,-2.372982979E0,1.326210052E-1,-2.311296940E0,3.315227005E0
5.043791438E0,-2.372982979E0,1.326210052E-1,-2.311296940E0,3.315227005E0
5.047731779E0,-2.372982979E0,1.326210052E-1,-2.311296940E0,3.315227005E0
5.051672394E0,-1.233700037E0,2.340240031E-1,-1.332885981E0,1.831220372E0
5.055612779E0,-1.233700037E0,2.340240031E-1,-1.332885981E0,1.831220372E0
5.059552779E0,-1.233700037E0,2.340240031E-1,-1.332885981E0,1.831220372E0
5.063493010E0,-1.233700037E0,2.340240031E-1,-1.332885981E0,1.831220372E0
5.067433394E0,-1.233700037E0,2.340240031E-1,-1.332885981E0,1.831220372E0
5.071374529E0,-5.460759997E-1,6.709870100E-1,-2.831219912E0,2.960444013E0
5.075314914E0,-5.460759997E-1,6.709870100E-1,-2.831219912E0,2.960444013E0
5.079254914E0,-5.460759997E-1,6.709870100E-1,-2.831219912E0,2.960444013E0
5.083194823E0,-5.460759997E-1,6.709870100E-1,-2.831219912E0,2.960444013E0
5.087135207E0,-5.460759997E-1,6.709870100E-1,-2.831219912E0,2.960444013E0
5.091075823E0,-5.460759997E-1,6.709870100E-1,-2.831219912E0,2.960444013E0
5.095016438E0,-4.935300052E-1,1.486968994E0,-3.263212919E0,3.619835247E0
5.098956977E0,-4.935300052E-1,1.486968994E0,-3.263212919E0,3.619835247E0
5.102895746E0,-4.935300052E-1,1.486968994E0,-3.263212919E0,3.619835247E0
5.106836058E0,-4.935300052E-1,1.486968994E0,-3.263212919E0,3.619835247E0
5.110776673E0,-4.935300052E-1,1.486968994E0,-3.263212919E0,3.619835247E0
5.114717288E0,-1.565800011E-1,2.062627077E0,-2.116811037E0,2.959702134E0
5.118657890E0,-1.565800011E-1,2.062627077E0,-2.116811037E0,2.959702134E0
5.122598274E0,-1.565800011E-1,2.062627077E0,-2.116811037E0,2.959702134E0
5.126538890E0,-1.565800011E-1,2.062627077E0,-2.116811037E0,2.959702134E0
5.130479803E0,-1.565800011E-1,2.062627077E0,-2.116811037E0,2.959702134E0
5.134420649E0,1.867810041E-1,2.068465948E0,-9.601569772E-1,2.288086524E0
5.138361265E0,1.867810041E-1,2.068465948E0,-9.601569772E-1,2.288086524E0
5.142302174E0,1.867810041E-1,2.068465948E0,-9.601569772E-1,2.288086524E0
5.146242866E0,1.867810041E-1,2.068465948E0,-9.601569772E-1,2.288086524E0
5.150183481E0,1.867810041E-1,2.068465948E0,-9.601569772E-1,2.288086524E0
5.154124082E0,2.322770059E-1,1.827494979E0,3.455770016E-1,1.874330272E0
5.158064928E0,2.322770059E-1,1.827494979E0,3.455770016E-1,1.874330272E0
5.162005543E0,2.322770059E-1,1.827494979E0,3.455770016E-1,1.874330272E0
5.165946223E0,2.322770059E-1,1.827494979E0,3.455770016E-1,1.874330272E0
5.169886761E0,2.322770059E-1,1.827494979E0,3.455770016E-1,1.874330272E0
5.173826761E0,2.869000137E-1,1.552996039E0,1.558172941E0,2.218560621E0
5.177766755E0,2.869000137E-1,1.552996039E0,1.558172941E0,2.218560621E0
5.181706755E0,2.869000137E-1,1.552996039E0,1.558172941E0,2.218560621E0
5.185647140E0,2.869000137E-1,1.552996039E0,1.558172941E0,2.218560621E0
5.189587678E0,2.869000137E-1,1.552996039E0,1.558172941E0,2.218560621E0
5.193528063E0,4.841180146E-1,1.226472974E0,3.013106108E0,3.288983828E0
5.197468294E0,4.841180146E-1,1.226472974E0,3.013106108E0,3.288983828E0
5.201408601E0,4.841180146E-1,1.226472974E0,3.013106108E0,3.288983828E0
5.205348601E0,4.841180146E-1,1.226472974E0,3.013106108E0,3.288983828E0
5.209288371E0,4.841180146E-1,1.226472974E0,3.013106108E0,3.288983828E0
5.213228337E0,8.385559916E-1,9.525709748E-1,3.861130953E0,4.064344947E0
5.217168567E0,8.385559916E-1,9.525709748E-1,3.861130953E0,4.064344947E0
5.221108567E0,8.385559916E-1,9.525709748E-1,3.861130953E0,4.064344947E0
5.225048572E0,8.385559916E-1,9.525709748E-1,3.861130953E0,4.064344947E0
5.229018438E0,8.641710281E-1,6.867870092E-1,3.934329987E0,4.086247717E0
5.232988265E0,8.641710281E-1,6.867870092E-1,3.934329987E0,4.086247717E0
5.236868577E0,8.641710281E-1,6.867870092E-1,3.934329987E0,4.086247717E0
5.240808654E0,8.641710281E-1,6.867870092E-1,3.934329987E0,4.086247717E0
5.244748885E0,8.641710281E-1,6.867870092E-1,3.934329987E0,4.086247717E0
5.248689519E0,8.641710281E-1,6.867870092E-1,3.934329987E0,4.086247717E0
5.252629519E0,9.606009722E-1,2.821069956E-1,4.199180126E0,4.316879928E0
5.256569520E0,9.606009722E-1,2.821069956E-1,4.199180126E0,4.316879928E0
5.260510212E0,9.606009722E-1,2.821069956E-1,4.199180126E0,4.316879928E0
5.264450520E0,9.606009722E-1,2.821069956E-1,4.199180126E0,4.316879928E0
5.268391058E0,9.606009722E-1,2.821069956E-1,4.199180126E0,4.316879928E0
5.272331457E0,8.162490129E-1,4.885900021E-2,4.494020939E0,4.567808430E0
5.276272303E0,8.162490129E-1,4.885900021E-2,4.494020939E0,4.567808430E0
5.280212687E0,8.162490129E-1,4.885900021E-2,4.494020939E0,4.567808430E0
5.284152909E0,8.162490129E-1,4.885900021E-2,4.494020939E0,4.567808430E0
5.288092909E0,8.162490129E-1,4.885900021E-2,4.494020939E0,4.567808430E0
5.292032909E0,6.328039765E-1,-1.102610007E-1,4.560779095E0,4.605790303E0
5.295972918E0,6.328039765E-1,-1.102610007E-1,4.560779095E0,4.605790303E0
5.299913226E0,6.328039765E-1,-1.102610007E-1,4.560779095E0,4.605790303E0
5.303853611E0,6.328039765E-1,-1.102610007E-1,4.560779095E0,4.605790303E0
5.307793611E0,6.328039765E-1,-1.102610007E-1,4.560779095E0,4.605790303E0
5.311733841E0,6.324769855E-1,-5.244339705E-1,3.943780899E0,4.028457013E0
5.315673841E0,6.324769855E-1,-5.244339705E-1,3.943780899E0,4.028457013E0
5.319614525E0,6.324769855E-1,-5.244339705E-1,3.943780899E0,4.028457013E0
5.323554832E0,6.324769855E-1,-5.244339705E-1,3.943780899E0,4.028457013E0
5.327494755E0,6.324769855E-1,-5.244339705E-1,3.943780899E0,4.028457013E0
5.331435376E0,6.324769855E-1,-5.244339705E-1,3.943780899E0,4.028457013E0
5.335375376E0,4.328779876E-1,-8.848490119E-1,3.046112061E0,3.201427777E0
5.339315068E0,4.328779876E-1,-8.848490119E-1,3.046112061E0,3.201427777E0
5.343255698E0,4.328779876E-1,-8.848490119E-1,3.046112061E0,3.201427777E0
5.347196005E0,4.328779876E-1,-8.848490119E-1,3.046112061E0,3.201427777E0
5.351136390E0,4.328779876E-1,-8.848490119E-1,3.046112061E0,3.201427777E0
5.355076602E0,6.807299703E-2,-1.115877032E0,1.774279952E0,2.097113452E0
5.359017217E0,6.807299703E-2,-1.115877032E0,1.774279952E0,2.097113452E0
5.362957832E0,6.807299703E-2,-1.115877032E0,1.774279952E0,2.097113452E0
5.366897838E0,6.807299703E-2,-1.115877032E0,1.774279952E0,2.097113452E0
5.370838223E0,6.807299703E-2,-1.115877032E0,1.774279952E0,2.097113452E0
5.374778146E0,-2.885400057E-1,-1.225630045E0,-5.205550194E-1,1.362498393E0
5.378718241E0,-2.885400057E-1,-1.225630045E0,-5.205550194E-1,1.362498393E0
5.382658241E0,-2.885400057E-1,-1.225630045E0,-5.205550194E-1,1.362498393E0
5.386598241E0,-2.885400057E-1,-1.225630045E0,-5.205550194E-1,1.362498393E0
5.390538554E0,-2.885400057E-1,-1.225630045E0,-5.205550194E-1,1.362498393E0
5.394478862E0,-3.637849987E-1,-1.362563014E0,-1.264755011E0,1.894339655E0
5.398419400E0,-3.637849987E-1,-1.362563014E0,-1.264755011E0,1.894339655E0
5.402359505E0,-3.637849987E-1,-1.362563014E0,-1.264755011E0,1.894339655E0
5.406299736E0,-3.637849987E-1,-1.362563014E0,-1.264755011E0,1.894339655E0
5.410239505E0,-3.637849987E-1,-1.362563014E0,-1.264755011E0,1.894339655E0
5.414179443E0,1.929630041E-1,-1.808809042E0,-1.068182945E0,2.109511715E0
5.418119751E0,1.929630041E-1,-1.808809042E0,-1.068182945E0,2.109511715E0
5.422060366E0,1.929630041E-1,-1.808809042E0,-1.068182945E0,2.109511715E0
5.426000630E0,1.929630041E-1,-1.808809042E0,-1.068182945E0,2.109511715E0
5.429941245E0,3.461990058E-1,-2.286839962E0,-1.184703946E0,2.598656230E0
5.433881861E0,3.461990058E-1,-2.286839962E0,-1.184703946E0,2.598656230E0
5.437822453E0,3.461990058E-1,-2.286839962E0,-1.184703946E0,2.598656230E0
5.441763453E0,3.461990058E-1,-2.286839962E0,-1.184703946E0,2.598656230E0
5.445704299E0,3.461990058E-1,-2.286839962E0,-1.184703946E0,2.598656230E0
5.449645241E0,3.461990058E-1,-2.286839962E0,-1.184703946E0,2.598656230E0
5.453586241E0,-1.282970011E-1,-1.959696054E0,-8.326169848E-1,2.133100980E0
5.457527087E0,-1.282970011E-1,-1.959696054E0,-8.326169848E-1,2.133100980E0
5.461469640E0,-1.282970011E-1,-1.959696054E0,-8.326169848E-1,2.133100980E0
5.465410255E0,-1.282970011E-1,-1.959696054E0,-8.326169848E-1,2.133100980E0
5.469351409E0,-1.282970011E-1,-1.959696054E0,-8.326169848E-1,2.133100980E0
5.473291702E0,-1.019785047E0,-1.255007029E0,-1.383061051E0,2.127877359E0
5.477232010E0,-1.019785047E0,-1.255007029E0,-1.383061051E0,2.127877359E0
5.481172625E0,-1.019785047E0,-1.255007029E0,-1.383061051E0,2.127877359E0
5.485113227E0,-1.019785047E0,-1.255007029E0,-1.383061051E0,2.127877359E0
5.489053843E0,-1.630880952E0,-1.141294956E0,-1.621891022E0,2.567656002E0
5.492994766E0,-1.630880952E0,-1.141294956E0,-1.621891022E0,2.567656002E0
5.496935684E0,-1.630880952E0,-1.141294956E0,-1.621891022E0,2.567656002E0
5.500875761E0,-1.630880952E0,-1.141294956E0,-1.621891022E0,2.567656002E0
5.504816607E0,-1.630880952E0,-1.141294956E0,-1.621891022E0,2.567656002E0
5.508757010E0,-1.630880952E0,-1.141294956E0,-1.621891022E0,2.567656002E0
5.512697010E0,-7.885900140E-1,-1.928174019E0,-1.837342024E0,2.777688782E0
5.516636394E0,-7.885900140E-1,-1.928174019E0,-1.837342024E0,2.777688782E0
5.520577020E0,-7.885900140E-1,-1.928174019E0,-1.837342024E0,2.777688782E0
5.524518250E0,-7.885900140E-1,-1.928174019E0,-1.837342024E0,2.777688782E0
5.528458558E0,-7.885900140E-1,-1.928174019E0,-1.837342024E0,2.777688782E0
5.532399438E0,7.029830217E-1,-1.328179002E0,-1.497655988E0,2.121607421E0
5.536339823E0,7.029830217E-1,-1.328179002E0,-1.497655988E0,2.121607421E0
5.540280669E0,7.029830217E-1,-1.328179002E0,-1.497655988E0,2.121607421E0
5.544221005E0,7.029830217E-1,-1.328179002E0,-1.497655988E0,2.121607421E0
5.548162005E0,7.029830217E-1,-1.328179002E0,-1.497655988E0,2.121607421E0
5.552102543E0,2.437391043E0,-6.407570243E-1,-2.778125048E0,3.750923012E0
5.556043154E0,2.437391043E0,-6.407570243E-1,-2.778125048E0,3.750923012E0
5.559983231E0,2.437391043E0,-6.407570243E-1,-2.778125048E0,3.750923012E0
5.563923846E0,2.437391043E0,-6.407570243E-1,-2.778125048E0,3.750923012E0
5.567864683E0,2.437391043E0,-6.407570243E-1,-2.778125048E0,3.750923012E0
5.571804991E0,2.981729984E0,7.355939746E-1,-5.752357006E0,6.520845292E0
5.575745991E0,2.981729984E0,7.355939746E-1,-5.752357006E0,6.520845292E0
5.579686289E0,2.981729984E0,7.355939746E-1,-5.752357006E0,6.520845292E0
5.583626519E0,2.981729984E0,7.355939746E-1,-5.752357006E0,6.520845292E0
5.587566827E0,2.981729984E0,7.355939746E-1,-5.752357006E0,6.520845292E0
5.591507154E0,2.203916073E0,1.901137948E0,-6.974068165E0,7.557062810E0
5.595447461E0,2.203916073E0,1.901137948E0,-6.974068165E0,7.557062810E0
5.599387846E0,2.203916073E0,1.901137948E0,-6.974068165E0,7.557062810E0
5.603328073E0,2.203916073E0,1.901137948E0,-6.974068165E0,7.557062810E0
5.607268073E0,2.203916073E0,1.901137948E0,-6.974068165E0,7.557062810E0
5.611208073E0,2.203916073E0,1.901137948E0,-6.974068165E0,7.557062810E0
5.615148491E0,1.293226957E0,2.531771898E0,-3.540374994E0,4.540546224E0
5.619088798E0,1.293226957E0,2.531771898E0,-3.540374994E0,4.540546224E0
5.623029106E0,1.293226957E0,2.531771898E0,-3.540374994E0,4.540546224E0
5.626969414E0,1.293226957E0,2.531771898E0,-3.540374994E0,4.540546224E0
5.630909644E0,1.903846979E0,2.166501999E0,-1.890943050E0,3.448772224E0
5.634850260E0,1.903846979E0,2.166501999E0,-1.890943050E0,3.448772224E0
5.638790337E0,1.903846979E0,2.166501999E0,-1.890943050E0,3.448772224E0
5.642730567E0,1.903846979E0,2.166501999E0,-1.890943050E0,3.448772224E0
5.646670029E0,1.903846979E0,2.166501999E0,-1.890943050E0,3.448772224E0
5.650609644E0,1.903846979E0,2.166501999E0,-1.890943050E0,3.448772224E0
5.654549414E0,3.314129114E0,1.805569053E0,-1.149798036E0,3.945322156E0
5.658489721E0,3.314129114E0,1.805569053E0,-1.149798036E0,3.945322156E0
5.662430034E0,3.314129114E0,1.805569053E0,-1.149798036E0,3.945322156E0
5.666370265E0,3.314129114E0,1.805569053E0,-1.149798036E0,3.945322156E0
5.670310265E0,3.314129114E0,1.805569053E0,-1.149798036E0,3.945322156E0
5.674249962E0,3.196113110E0,1.547006011E0,-1.447628021E0,3.834578659E0
5.678190039E0,3.196113110E0,1.547006011E0,-1.447628021E0,3.834578659E0
5.682129347E0,3.196113110E0,1.547006011E0,-1.447628021E0,3.834578659E0
5.686069063E0,3.196113110E0,1.547006011E0,-1.447628021E0,3.834578659E0
5.690008525E0,2.654851913E0,1.536640048E0,-9.251570106E-1,3.203968916E0
5.693947525E0,2.654851913E0,1.536640048E0,-9.251570106E-1,3.203968916E0
5.697886664E0,2.654851913E0,1.536640048E0,-9.251570106E-1,3.203968916E0
5.701826048E0,2.654851913E0,1.536640048E0,-9.251570106E-1,3.203968916E0
5.705766279E0,2.654851913E0,1.536640048E0,-9.251570106E-1,3.203968916E0
5.709706279E0,1.793447018E0,1.538879037E0,1.254809946E-1,2.366505097E0
5.713646356E0,1.793447018E0,1.538879037E0,1.254809946E-1,2.366505097E0
5.717586587E0,1.793447018E0,1.538879037E0,1.254809946E-1,2.366505097E0
5.721526260E0,1.793447018E0,1.538879037E0,1.254809946E-1,2.366505097E0
5.725466260E0,1.793447018E0,1.538879037E0,1.254809946E-1,2.366505097E0
5.729406029E0,1.793447018E0,1.538879037E0,1.254809946E-1,2.366505097E0
5.733345660E0,7.026680112E-1,1.551391959E0,7.379119992E-1,1.856090909E0
5.737285429E0,7.026680112E-1,1.551391959E0,7.379119992E-1,1.856090909E0
5.741225660E0,7.026680112E-1,1.551391959E0,7.379119992E-1,1.856090909E0
5.745165752E0,7.026680112E-1,1.551391959E0,7.379119992E-1,1.856090909E0
5.749105444E0,7.026680112E-1,1.551391959E0,7.379119992E-1,1.856090909E0
5.753045752E0,-3.164600134E-1,1.456295967E0,8.486340046E-1,1.714970716E0
5.756985977E0,-3.164600134E-1,1.456295967E0,8.486340046E-1,1.714970716E0
5.760925977E0,-3.164600134E-1,1.456295967E0,8.486340046E-1,1.714970716E0
5.764865747E0,-3.164600134E-1,1.456295967E0,8.486340046E-1,1.714970716E0
5.768805453E0,-3.164600134E-1,1.456295967E0,8.486340046E-1,1.714970716E0
5.772745145E0,-9.013230205E-1,1.302057981E0,1.708313942E0,2.329393633E0
5.776684838E0,-9.013230205E-1,1.302057981E0,1.708313942E0,2.329393633E0
5.780625040E0,-9.013230205E-1,1.302057981E0,1.708313942E0,2.329393633E0
5.784565040E0,-9.013230205E-1,1.302057981E0,1.708313942E0,2.329393633E0
5.788505656E0,-9.013230205E-1,1.302057981E0,1.708313942E0,2.329393633E0
5.792445929E0,-1.243849039E0,8.260470033E-1,2.946034908E0,3.302822394E0
5.796386314E0,-1.243849039E0,8.260470033E-1,2.946034908E0,3.302822394E0
5.800326237E0,-1.243849039E0,8.260470033E-1,2.946034908E0,3.302822394E0
5.804266247E0,-1.243849039E0,8.260470033E-1,2.946034908E0,3.302822394E0
5.808206324E0,-1.243849039E0,8.260470033E-1,2.946034908E0,3.302822394E0
5.812146324E0,-1.125082970E0,3.375050128E-1,4.142529011E0,4.305841141E0
5.816086569E0,-1.125082970E0,3.375050128E-1,4.142529011E0,4.305841141E0
5.820026338E0,-1.125082970E0,3.375050128E-1,4.142529011E0,4.305841141E0
5.823966877E0,-1.125082970E0,3.375050128E-1,4.142529011E0,4.305841141E0
5.827907198E0,-1.125082970E0,3.375050128E-1,4.142529011E0,4.305841141E0
5.831847198E0,-7.628480196E-1,-1.305930018E-1,4.674800873E0,4.738433795E0
5.835786891E0,-7.628480196E-1,-1.305930018E-1,4.674800873E0,4.738433795E0
5.839726646E0,-7.628480196E-1,-1.305930018E-1,4.674800873E0,4.738433795E0
5.843666338E0,-7.628480196E-1,-1.305930018E-1,4.674800873E0,4.738433795E0
5.847606338E0,-7.628480196E-1,-1.305930018E-1,4.674800873E0,4.738433795E0
5.851545646E0,-1.418430060E-1,-6.491169930E-1,4.121295929E0,4.174512240E0
5.855485107E0,-1.418430060E-1,-6.491169930E-1,4.121295929E0,4.174512240E0
5.859425107E0,-1.418430060E-1,-6.491169930E-1,4.121295929E0,4.174512240E0
5.863365963E0,-1.418430060E-1,-6.491169930E-1,4.121295929E0,4.174512240E0
5.867306270E0,-1.418430060E-1,-6.491169930E-1,4.121295929E0,4.174512240E0
5.871246347E0,-1.418430060E-1,-6.491169930E-1,4.121295929E0,4.174512240E0
5.875186237E0,2.182600088E-2,-6.577000022E-1,3.265281916E0,3.330932550E0
5.879125699E0,2.182600088E-2,-6.577000022E-1,3.265281916E0,3.330932550E0
5.883065084E0,2.182600088E-2,-6.577000022E-1,3.265281916E0,3.330932550E0
5.887004776E0,2.182600088E-2,-6.577000022E-1,3.265281916E0,3.330932550E0
5.890944776E0,-5.290169716E-1,-4.582580030E-1,2.580311060E0,2.673549049E0
5.894884468E0,-5.290169716E-1,-4.582580030E-1,2.580311060E0,2.673549049E0
5.898824083E0,-5.290169716E-1,-4.582580030E-1,2.580311060E0,2.673549049E0
5.902763775E0,-5.290169716E-1,-4.582580030E-1,2.580311060E0,2.673549049E0
5.906703852E0,-5.290169716E-1,-4.582580030E-1,2.580311060E0,2.673549049E0
5.910643549E0,-5.290169716E-1,-4.582580030E-1,2.580311060E0,2.673549049E0
5.914583857E0,-1.066148996E0,-4.134970009E-1,2.132759094E0,2.419982398E0
5.918524165E0,-1.066148996E0,-4.134970009E-1,2.132759094E0,2.419982398E0
5.922464136E0,-1.066148996E0,-4.134970009E-1,2.132759094E0,2.419982398E0
5.926404443E0,-1.066148996E0,-4.134970009E-1,2.132759094E0,2.419982398E0
5.930344751E0,-1.066148996E0,-4.134970009E-1,2.132759094E0,2.419982398E0
5.934284751E0,-1.164847970E0,-4.016770124E-1,1.092041969E0,1.646441884E0
5.938224674E0,-1.164847970E0,-4.016770124E-1,1.092041969E0,1.646441884E0
5.942164366E0,-1.164847970E0,-4.016770124E-1,1.092041969E0,1.646441884E0
5.946104146E0,-1.164847970E0,-4.016770124E-1,1.092041969E0,1.646441884E0
5.950044069E0,-1.164847970E0,-4.016770124E-1,1.092041969E0,1.646441884E0
5.953983838E0,-5.612260103E-1,-7.458590269E-1,-3.699440062E-1,1.004061199E0
5.957923819E0,-5.612260103E-1,-7.458590269E-1,-3.699440062E-1,1.004061199E0
5.961863127E0,-5.612260103E-1,-7.458590269E-1,-3.699440062E-1,1.004061199E0
5.965803204E0,-5.612260103E-1,-7.458590269E-1,-3.699440062E-1,1.004061199E0
5.969743218E0,-5.612260103E-1,-7.458590269E-1,-3.699440062E-1,1.004061199E0
5.973683141E0,-4.271619916E-1,-1.066238999E0,-1.367076039E0,1.785561499E0
5.977622833E0,-4.271619916E-1,-1.066238999E0,-1.367076039E0,1.785561499E0
5.981562237E0,-4.271619916E-1,-1.066238999E0,-1.367076039E0,1.785561499E0
5.985501314E0,-4.271619916E-1,-1.066238999E0,-1.367076039E0,1.785561499E0
5.989440467E0,-4.271619916E-1,-1.066238999E0,-1.367076039E0,1.785561499E0
5.993380467E0,-9.906319976E-1,-1.012822032E0,-1.972429037E0,2.428504999E0
5.997320390E0,-9.906319976E-1,-1.012822032E0,-1.972429037E0,2.428504999E0
6.001260467E0,-9.906319976E-1,-1.012822032E0,-1.972429037E0,2.428504999E0
6.005200136E0,-9.906319976E-1,-1.012822032E0,-1.972429037E0,2.428504999E0
6.009139828E0,-9.906319976E-1,-1.012822032E0,-1.972429037E0,2.428504999E0
6.013079520E0,-1.235116005E0,-9.191039801E-1,-1.488582969E0,2.141528176E0
6.017018900E0,-1.235116005E0,-9.191039801E-1,-1.488582969E0,2.141528176E0
6.020958823E0,-1.235116005E0,-9.191039801E-1,-1.488582969E0,2.141528176E0
6.024898515E0,-1.235116005E0,-9.191039801E-1,-1.488582969E0,2.141528176E0
6.028868227E0,-8.848450184E-1,-1.297268987E0,-6.475409865E-1,1.698577893E0
6.032837900E0,-8.848450184E-1,-1.297268987E0,-6.475409865E-1,1.698577893E0
6.036717054E0,-8.848450184E-1,-1.297268987E0,-6.475409865E-1,1.698577893E0
6.040656439E0,-8.848450184E-1,-1.297268987E0,-6.475409865E-1,1.698577893E0
6.044596425E0,-8.848450184E-1,-1.297268987E0,-6.475409865E-1,1.698577893E0
6.048536425E0,-8.848450184E-1,-1.297268987E0,-6.475409865E-1,1.698577893E0
6.052476117E0,-3.352360129E-1,-1.202430010E0,-1.336828947E0,1.829025081E0
6.056415799E0,-3.352360129E-1,-1.202430010E0,-1.336828947E0,1.829025081E0
6.060355491E0,-3.352360129E-1,-1.202430010E0,-1.336828947E0,1.829025081E0
6.064295107E0,-3.352360129E-1,-1.202430010E0,-1.336828947E0,1.829025081E0
6.068235126E0,-3.352360129E-1,-1.202430010E0,-1.336828947E0,1.829025081E0
6.072175203E0,-1.032101989E0,-1.152122974E0,-3.858932018E0,4.157400412E0
6.076115818E0,-1.032101989E0,-1.152122974E0,-3.858932018E0,4.157400412E0
6.080057602E0,-1.032101989E0,-1.152122974E0,-3.858932018E0,4.157400412E0
6.083997910E0,-1.032101989E0,-1.152122974E0,-3.858932018E0,4.157400412E0
6.087938295E0,-1.032101989E0,-1.152122974E0,-3.858932018E0,4.157400412E0
6.091878833E0,-1.619814992E0,-8.710070252E-1,-4.577762127E0,4.933392336E0
6.095818833E0,-1.619814992E0,-8.710070252E-1,-4.577762127E0,4.933392336E0
6.099759218E0,-1.619814992E0,-8.710070252E-1,-4.577762127E0,4.933392336E0
6.103699434E0,-1.619814992E0,-8.710070252E-1,-4.577762127E0,4.933392336E0
6.107638588E0,-1.619814992E0,-8.710070252E-1,-4.577762127E0,4.933392336E0
6.111577049E0,-1.367558002E0,-1.094725966E0,-3.148494959E0,3.603007124E0
6.115516741E0,-1.367558002E0,-1.094725966E0,-3.148494959E0,3.603007124E0
6.119457049E0,-1.367558002E0,-1.094725966E0,-3.148494959E0,3.603007124E0
6.123397280E0,-1.367558002E0,-1.094725966E0,-3.148494959E0,3.603007124E0
6.127337039E0,-1.367558002E0,-1.094725966E0,-3.148494959E0,3.603007124E0
6.131277270E0,-1.367558002E0,-1.094725966E0,-3.148494959E0,3.603007124E0
6.135217039E0,-2.751579881E-1,-1.083212972E0,-3.035320997E0,3.234537960E0
6.139157038E0,-2.751579881E-1,-1.083212972E0,-3.035320997E0,3.234537960E0
6.143096730E0,-2.751579881E-1,-1.083212972E0,-3.035320997E0,3.234537960E0
6.147036730E0,-2.751579881E-1,-1.083212972E0,-3.035320997E0,3.234537960E0
6.150977067E0,-2.751579881E-1,-1.083212972E0,-3.035320997E0,3.234537960E0
6.154916683E0,-6.046400070E-1,-3.133519888E-1,-5.227580070E0,5.271752308E0
6.158856375E0,-6.046400070E-1,-3.133519888E-1,-5.227580070E0,5.271752308E0
6.162796058E0,-6.046400070E-1,-3.133519888E-1,-5.227580070E0,5.271752308E0
6.166736981E0,-6.046400070E-1,-3.133519888E-1,-5.227580070E0,5.271752308E0
6.170676674E0,-6.046400070E-1,-3.133519888E-1,-5.227580070E0,5.271752308E0
6.174616140E0,-1.398076057E0,2.636879981E-1,-5.367924213E0,5.553265560E0
6.178556140E0,-1.398076057E0,2.636879981E-1,-5.367924213E0,5.553265560E0
6.182496448E0,-1.398076057E0,2.636879981E-1,-5.367924213E0,5.553265560E0
6.186436351E0,-1.398076057E0,2.636879981E-1,-5.367924213E0,5.553265560E0
6.190376659E0,-1.398076057E0,2.636879981E-1,-5.367924213E0,5.553265560E0
6.194316966E0,-1.739120960E0,5.217090249E-1,-3.544173002E0,3.982195913E0
6.198257592E0,-1.739120960E0,5.217090249E-1,-3.544173002E0,3.982195913E0
6.202197899E0,-1.739120960E0,5.217090249E-1,-3.544173002E0,3.982195913E0
6.206137976E0,-1.739120960E0,5.217090249E-1,-3.544173002E0,3.982195913E0
6.210077875E0,-1.739120960E0,5.217090249E-1,-3.544173002E0,3.982195913E0
6.214017952E0,-1.416733027E0,5.237889886E-1,-1.955046058E0,2.470565211E0
6.217958260E0,-1.416733027E0,5.237889886E-1,-1.955046058E0,2.470565211E0
6.221898573E0,-1.416733027E0,5.237889886E-1,-1.955046058E0,2.470565211E0
6.225838573E0,-1.416733027E0,5.237889886E-1,-1.955046058E0,2.470565211E0
6.229778505E0,-1.042117000E0,8.554689884E-1,-1.948585033E0,2.369560859E0
6.233717659E0,-1.042117000E0,8.554689884E-1,-1.948585033E0,2.369560859E0
6.237656120E0,-1.042117000E0,8.554689884E-1,-1.948585033E0,2.369560859E0
6.241596120E0,-1.042117000E0,8.554689884E-1,-1.948585033E0,2.369560859E0
6.245536351E0,-1.042117000E0,8.554689884E-1,-1.948585033E0,2.369560859E0
6.249476120E0,-1.042117000E0,8.554689884E-1,-1.948585033E0,2.369560859E0
6.253415813E0,-6.553570032E-1,1.356027007E0,-1.883862972E0,2.411895882E0
6.257355443E0,-6.553570032E-1,1.356027007E0,-1.883862972E0,2.411895882E0
6.261295520E0,-6.553570032E-1,1.356027007E0,-1.883862972E0,2.411895882E0
6.265236058E0,-6.553570032E-1,1.356027007E0,-1.883862972E0,2.411895882E0
6.269175808E0,-3.391439915E-1,1.566622972E0,-1.129281044E0,1.960765631E0
6.273115808E0,-3.391439915E-1,1.566622972E0,-1.129281044E0,1.960765631E0
6.277055808E0,-3.391439915E-1,1.566622972E0,-1.129281044E0,1.960765631E0
6.280996024E0,-3.391439915E-1,1.566622972E0,-1.129281044E0,1.960765631E0
6.284936640E0,-3.391439915E-1,1.566622972E0,-1.129281044E0,1.960765631E0
6.288876409E0,-3.391439915E-1,1.566622972E0,-1.129281044E0,1.960765631E0
6.292816640E0,-9.367000312E-2,1.559259057E0,2.579619884E-1,1.583226852E0
6.296756717E0,-9.367000312E-2,1.559259057E0,2.579619884E-1,1.583226852E0
6.300696948E0,-9.367000312E-2,1.559259057E0,2.579619884E-1,1.583226852E0
6.304637044E0,-9.367000312E-2,1.559259057E0,2.579619884E-1,1.583226852E0
6.308577582E0,-9.367000312E-2,1.559259057E0,2.579619884E-1,1.583226852E0
6.312517890E0,-2.746700048E-1,1.751186013E0,1.305637956E0,2.201541854E0
6.316457582E0,-2.746700048E-1,1.751186013E0,1.305637956E0,2.201541854E0
6.320397044E0,-2.746700048E-1,1.751186013E0,1.305637956E0,2.201541854E0
6.324336736E0,-2.746700048E-1,1.751186013E0,1.305637956E0,2.201541854E0
6.328277260E0,-2.746700048E-1,1.751186013E0,1.305637956E0,2.201541854E0
6.332217953E0,-4.488300085E-1,1.905171037E0,1.873204947E0,2.709247465E0
6.336157876E0,-4.488300085E-1,1.905171037E0,1.873204947E0,2.709247465E0
